subj_id,date,experimenter,computer,block_ix,trial_ix,sound_id,word,sound_category,word_category,word_type,correct_response,response,rt,is_correct
LSN101,2016_Nov_16_1152,,LL-ELAINE,1,1,38,cliq,tear,glass,sound_effect,0,1,5538.90050109,0
LSN101,2016_Nov_16_1152,,LL-ELAINE,1,2,34,cliq,glass,glass,sound_effect,1,0,4300.35689706,0
LSN101,2016_Nov_16_1152,,LL-ELAINE,1,3,34,brrip,glass,zipper,sound_effect,0,0,2329.52226978,1
LSN101,2016_Nov_16_1152,,LL-ELAINE,1,4,49,brrip,zipper,zipper,sound_effect,1,1,1498.19598952,1
LSN101,2016_Nov_16_1152,,LL-ELAINE,1,5,49,crish,zipper,tear,sound_effect,0,0,871.738232672,1
LSN101,2016_Nov_16_1152,,LL-ELAINE,1,6,38,crish,tear,tear,sound_effect,1,1,1315.94225625,1
LSN101,2016_Nov_16_1152,,LL-ELAINE,1,7,38,brrip,tear,zipper,sound_effect,0,0,1506.28554961,1
LSN101,2016_Nov_16_1152,,LL-ELAINE,1,8,38,crish,tear,tear,sound_effect,1,1,629.048861098,1
LSN101,2016_Nov_16_1152,,LL-ELAINE,1,9,45,crish,water,tear,sound_effect,0,0,1083.07155548,1
LSN101,2016_Nov_16_1152,,LL-ELAINE,1,10,38,cliq,tear,glass,sound_effect,0,1,1734.4852197,0
LSN101,2016_Nov_16_1152,,LL-ELAINE,1,11,45,guplunk,water,water,sound_effect,1,1,1437.70273542,1
LSN101,2016_Nov_16_1152,,LL-ELAINE,1,12,34,cliq,glass,glass,sound_effect,1,1,1507.26373587,1
LSN101,2016_Nov_16_1152,,LL-ELAINE,1,13,34,crish,glass,tear,sound_effect,0,0,680.288398638,1
LSN101,2016_Nov_16_1152,,LL-ELAINE,1,14,34,cliq,glass,glass,sound_effect,1,1,769.949586131,1
LSN101,2016_Nov_16_1152,,LL-ELAINE,1,15,49,guplunk,zipper,water,sound_effect,0,0,1445.22158056,1
LSN101,2016_Nov_16_1152,,LL-ELAINE,1,16,34,cliq,glass,glass,sound_effect,1,1,495.758206584,1
LSN101,2016_Nov_16_1152,,LL-ELAINE,1,17,49,brrip,zipper,zipper,sound_effect,1,0,2494.43496671,0
LSN101,2016_Nov_16_1152,,LL-ELAINE,1,18,45,cliq,water,glass,sound_effect,0,0,1183.6861223,1
LSN101,2016_Nov_16_1152,,LL-ELAINE,1,19,49,brrip,zipper,zipper,sound_effect,1,1,725.319846999,1
LSN101,2016_Nov_16_1152,,LL-ELAINE,1,20,45,crish,water,tear,sound_effect,0,0,967.555334792,1
LSN101,2016_Nov_16_1152,,LL-ELAINE,1,21,45,cliq,water,glass,sound_effect,0,0,1061.39654014,1
LSN101,2016_Nov_16_1152,,LL-ELAINE,1,22,38,cliq,tear,glass,sound_effect,0,0,1124.11920028,1
LSN101,2016_Nov_16_1152,,LL-ELAINE,1,23,45,cliq,water,glass,sound_effect,0,0,827.639838215,1
LSN101,2016_Nov_16_1152,,LL-ELAINE,1,24,49,brrip,zipper,zipper,sound_effect,1,1,2167.84853488,1
LSN101,2016_Nov_16_1152,,LL-ELAINE,2,25,40,guplunk,tear,water,sound_effect,0,0,1482.83437081,1
LSN101,2016_Nov_16_1152,,LL-ELAINE,2,26,36,guplunk,glass,water,sound_effect,0,0,909.076388925,1
LSN101,2016_Nov_16_1152,,LL-ELAINE,2,27,48,brrip,zipper,zipper,sound_effect,1,0,1384.87364585,0
LSN101,2016_Nov_16_1152,,LL-ELAINE,2,28,43,brrip,water,zipper,sound_effect,0,0,760.275274981,1
LSN101,2016_Nov_16_1152,,LL-ELAINE,2,29,36,cliq,glass,glass,sound_effect,1,1,620.415472891,1
LSN101,2016_Nov_16_1152,,LL-ELAINE,2,30,43,guplunk,water,water,sound_effect,1,1,842.553334311,1
LSN101,2016_Nov_16_1152,,LL-ELAINE,2,31,40,guplunk,tear,water,sound_effect,0,0,919.099275023,1
LSN101,2016_Nov_16_1152,,LL-ELAINE,2,32,48,guplunk,zipper,water,sound_effect,0,0,794.69103599,1
LSN101,2016_Nov_16_1152,,LL-ELAINE,2,33,40,crish,tear,tear,sound_effect,1,1,747.908711433,1
LSN101,2016_Nov_16_1152,,LL-ELAINE,2,34,48,brrip,zipper,zipper,sound_effect,1,1,533.711889759,1
LSN101,2016_Nov_16_1152,,LL-ELAINE,2,35,36,guplunk,glass,water,sound_effect,0,0,600.399148185,1
LSN101,2016_Nov_16_1152,,LL-ELAINE,2,36,43,cliq,water,glass,sound_effect,0,0,567.261815537,1
LSN101,2016_Nov_16_1152,,LL-ELAINE,2,37,36,crish,glass,tear,sound_effect,0,0,621.623801533,1
LSN101,2016_Nov_16_1152,,LL-ELAINE,2,38,48,brrip,zipper,zipper,sound_effect,1,1,666.588672437,1
LSN101,2016_Nov_16_1152,,LL-ELAINE,2,39,43,guplunk,water,water,sound_effect,1,0,1041.40230129,0
LSN101,2016_Nov_16_1152,,LL-ELAINE,2,40,40,crish,tear,tear,sound_effect,1,1,2088.36419508,1
LSN101,2016_Nov_16_1152,,LL-ELAINE,2,41,48,brrip,zipper,zipper,sound_effect,1,1,453.771746252,1
LSN101,2016_Nov_16_1152,,LL-ELAINE,2,42,40,crish,tear,tear,sound_effect,1,1,1199.26988147,1
LSN101,2016_Nov_16_1152,,LL-ELAINE,2,43,48,cliq,zipper,glass,sound_effect,0,0,537.911111955,1
LSN101,2016_Nov_16_1152,,LL-ELAINE,2,44,40,guplunk,tear,water,sound_effect,0,0,752.417777665,1
LSN101,2016_Nov_16_1152,,LL-ELAINE,2,45,36,cliq,glass,glass,sound_effect,1,1,556.830178015,1
LSN101,2016_Nov_16_1152,,LL-ELAINE,2,46,43,brrip,water,zipper,sound_effect,0,0,631.920042448,1
LSN101,2016_Nov_16_1152,,LL-ELAINE,2,47,43,guplunk,water,water,sound_effect,1,1,562.503080815,1
LSN101,2016_Nov_16_1152,,LL-ELAINE,2,48,36,crish,glass,tear,sound_effect,0,0,1180.21189794,1
LSN101,2016_Nov_16_1152,,LL-ELAINE,3,49,35,crish,glass,tear,sound_effect,0,0,752.41041556,1
LSN101,2016_Nov_16_1152,,LL-ELAINE,3,50,42,guplunk,water,water,sound_effect,1,1,2271.32820152,1
LSN101,2016_Nov_16_1152,,LL-ELAINE,3,51,46,brrip,zipper,zipper,sound_effect,1,1,526.727269869,1
LSN101,2016_Nov_16_1152,,LL-ELAINE,3,52,42,guplunk,water,water,sound_effect,1,1,609.011411201,1
LSN101,2016_Nov_16_1152,,LL-ELAINE,3,53,46,crish,zipper,tear,sound_effect,0,0,2149.84747861,1
LSN101,2016_Nov_16_1152,,LL-ELAINE,3,54,46,crish,zipper,tear,sound_effect,0,0,1449.40031692,1
LSN101,2016_Nov_16_1152,,LL-ELAINE,3,55,46,brrip,zipper,zipper,sound_effect,1,1,647.479794454,1
LSN101,2016_Nov_16_1152,,LL-ELAINE,3,56,39,crish,tear,tear,sound_effect,1,1,743.70372761,1
LSN101,2016_Nov_16_1152,,LL-ELAINE,3,57,35,cliq,glass,glass,sound_effect,1,1,547.147224192,1
LSN101,2016_Nov_16_1152,,LL-ELAINE,3,58,46,crish,zipper,tear,sound_effect,0,0,634.079989512,1
LSN101,2016_Nov_16_1152,,LL-ELAINE,3,59,35,brrip,glass,zipper,sound_effect,0,0,817.317350302,1
LSN101,2016_Nov_16_1152,,LL-ELAINE,3,60,46,brrip,zipper,zipper,sound_effect,1,1,840.660979506,1
LSN101,2016_Nov_16_1152,,LL-ELAINE,3,61,39,crish,tear,tear,sound_effect,1,1,505.09546604,1
LSN101,2016_Nov_16_1152,,LL-ELAINE,3,62,42,brrip,water,zipper,sound_effect,0,0,814.645583741,1
LSN101,2016_Nov_16_1152,,LL-ELAINE,3,63,35,guplunk,glass,water,sound_effect,0,0,2102.91919392,1
LSN101,2016_Nov_16_1152,,LL-ELAINE,3,64,39,guplunk,tear,water,sound_effect,0,0,668.365475256,1
LSN101,2016_Nov_16_1152,,LL-ELAINE,3,65,39,cliq,tear,glass,sound_effect,0,0,907.852695789,1
LSN101,2016_Nov_16_1152,,LL-ELAINE,3,66,42,crish,water,tear,sound_effect,0,0,646.798328962,1
LSN101,2016_Nov_16_1152,,LL-ELAINE,3,67,39,crish,tear,tear,sound_effect,1,1,444.356064778,1
LSN101,2016_Nov_16_1152,,LL-ELAINE,3,68,42,guplunk,water,water,sound_effect,1,1,521.989340894,1
LSN101,2016_Nov_16_1152,,LL-ELAINE,3,69,35,cliq,glass,glass,sound_effect,1,1,550.301041454,1
LSN101,2016_Nov_16_1152,,LL-ELAINE,3,70,35,cliq,glass,glass,sound_effect,1,1,544.908535201,1
LSN101,2016_Nov_16_1152,,LL-ELAINE,3,71,39,crish,tear,tear,sound_effect,1,1,1116.8455421,1
LSN101,2016_Nov_16_1152,,LL-ELAINE,3,72,42,crish,water,tear,sound_effect,0,0,818.639309611,1
LSN101,2016_Nov_16_1152,,LL-ELAINE,4,73,41,crish,tear,tear,sound_effect,1,1,504.012931138,1
LSN101,2016_Nov_16_1152,,LL-ELAINE,4,74,41,cliq,tear,glass,sound_effect,0,0,712.519885506,1
LSN101,2016_Nov_16_1152,,LL-ELAINE,4,75,37,cliq,glass,glass,sound_effect,1,1,773.5940977,1
LSN101,2016_Nov_16_1152,,LL-ELAINE,4,76,47,brrip,zipper,zipper,sound_effect,1,1,463.304898702,1
LSN101,2016_Nov_16_1152,,LL-ELAINE,4,77,44,cliq,water,glass,sound_effect,0,0,689.772897866,1
LSN101,2016_Nov_16_1152,,LL-ELAINE,4,78,44,guplunk,water,water,sound_effect,1,1,485.496854875,1
LSN101,2016_Nov_16_1152,,LL-ELAINE,4,79,47,brrip,zipper,zipper,sound_effect,1,1,530.584958848,1
LSN101,2016_Nov_16_1152,,LL-ELAINE,4,80,37,brrip,glass,zipper,sound_effect,0,0,700.397868175,1
LSN101,2016_Nov_16_1152,,LL-ELAINE,4,81,37,crish,glass,tear,sound_effect,0,0,605.005521327,1
LSN101,2016_Nov_16_1152,,LL-ELAINE,4,82,47,cliq,zipper,glass,sound_effect,0,0,636.892915238,1
LSN101,2016_Nov_16_1152,,LL-ELAINE,4,83,44,brrip,water,zipper,sound_effect,0,0,542.127618566,1
LSN101,2016_Nov_16_1152,,LL-ELAINE,4,84,44,cliq,water,glass,sound_effect,0,0,450.759406667,1
LSN101,2016_Nov_16_1152,,LL-ELAINE,4,85,41,crish,tear,tear,sound_effect,1,1,591.858265456,1
LSN101,2016_Nov_16_1152,,LL-ELAINE,4,86,41,cliq,tear,glass,sound_effect,0,0,644.566361792,1
LSN101,2016_Nov_16_1152,,LL-ELAINE,4,87,37,guplunk,glass,water,sound_effect,0,0,503.183265682,1
LSN101,2016_Nov_16_1152,,LL-ELAINE,4,88,47,guplunk,zipper,water,sound_effect,0,0,595.470767934,1
LSN101,2016_Nov_16_1152,,LL-ELAINE,4,89,37,crish,glass,tear,sound_effect,0,0,544.093913864,1
LSN101,2016_Nov_16_1152,,LL-ELAINE,4,90,41,crish,tear,tear,sound_effect,1,1,689.833074808,1
LSN101,2016_Nov_16_1152,,LL-ELAINE,4,91,41,brrip,tear,zipper,sound_effect,0,0,514.360386413,1
LSN101,2016_Nov_16_1152,,LL-ELAINE,4,92,37,cliq,glass,glass,sound_effect,1,1,496.102619916,1
LSN101,2016_Nov_16_1152,,LL-ELAINE,4,93,47,cliq,zipper,glass,sound_effect,0,0,823.340748437,1
LSN101,2016_Nov_16_1152,,LL-ELAINE,4,94,44,cliq,water,glass,sound_effect,0,0,679.93694311,1
LSN101,2016_Nov_16_1152,,LL-ELAINE,4,95,47,brrip,zipper,zipper,sound_effect,1,1,570.659539197,1
LSN101,2016_Nov_16_1152,,LL-ELAINE,4,96,44,crish,water,tear,sound_effect,0,0,713.445577305,1
LSN102,2016_Nov_21_1046,,LL-Kramer,1,1,40,taateh,tear,glass,first_gen_imitation,0,1,3614.47781185,0
LSN102,2016_Nov_21_1046,,LL-Kramer,1,2,34,taateh,glass,glass,first_gen_imitation,1,0,2311.4619609,0
LSN102,2016_Nov_21_1046,,LL-Kramer,1,3,40,phfffft,tear,tear,first_gen_imitation,1,1,2092.05994569,1
LSN102,2016_Nov_21_1046,,LL-Kramer,1,4,34,phfffft,glass,tear,first_gen_imitation,0,0,1848.86785597,1
LSN102,2016_Nov_21_1046,,LL-Kramer,1,5,40,phfffft,tear,tear,first_gen_imitation,1,0,3346.48417449,0
LSN102,2016_Nov_21_1046,,LL-Kramer,1,6,40,taateh,tear,glass,first_gen_imitation,0,1,5798.65019675,0
LSN102,2016_Nov_21_1046,,LL-Kramer,1,7,40,phfffft,tear,tear,first_gen_imitation,1,1,2650.31656483,1
LSN102,2016_Nov_21_1046,,LL-Kramer,1,8,48,zerp,zipper,zipper,first_gen_imitation,1,0,2738.93750645,0
LSN102,2016_Nov_21_1046,,LL-Kramer,1,9,40,phfffft,tear,tear,first_gen_imitation,1,0,1289.24286878,0
LSN102,2016_Nov_21_1046,,LL-Kramer,1,10,45,zerp,water,zipper,first_gen_imitation,0,1,1776.08957281,0
LSN102,2016_Nov_21_1046,,LL-Kramer,1,11,45,fshfshfsh,water,water,first_gen_imitation,1,1,1317.37651071,1
LSN102,2016_Nov_21_1046,,LL-Kramer,1,12,34,taateh,glass,glass,first_gen_imitation,1,1,1415.36252946,1
LSN102,2016_Nov_21_1046,,LL-Kramer,1,13,48,taateh,zipper,glass,first_gen_imitation,0,1,2151.26722027,0
LSN102,2016_Nov_21_1046,,LL-Kramer,1,14,48,taateh,zipper,glass,first_gen_imitation,0,0,1020.59977734,1
LSN102,2016_Nov_21_1046,,LL-Kramer,1,15,34,phfffft,glass,tear,first_gen_imitation,0,0,1610.30741083,1
LSN102,2016_Nov_21_1046,,LL-Kramer,1,16,48,taateh,zipper,glass,first_gen_imitation,0,1,2047.57374758,0
LSN102,2016_Nov_21_1046,,LL-Kramer,1,17,48,phfffft,zipper,tear,first_gen_imitation,0,0,7215.98861786,1
LSN102,2016_Nov_21_1046,,LL-Kramer,1,18,48,zerp,zipper,zipper,first_gen_imitation,1,1,2613.41992719,1
LSN102,2016_Nov_21_1046,,LL-Kramer,1,19,45,fshfshfsh,water,water,first_gen_imitation,1,1,1105.20523926,1
LSN102,2016_Nov_21_1046,,LL-Kramer,1,20,34,fshfshfsh,glass,water,first_gen_imitation,0,0,1038.8994161,1
LSN102,2016_Nov_21_1046,,LL-Kramer,1,21,45,fshfshfsh,water,water,first_gen_imitation,1,1,702.693844214,1
LSN102,2016_Nov_21_1046,,LL-Kramer,1,22,34,phfffft,glass,tear,first_gen_imitation,0,0,2220.69228208,1
LSN102,2016_Nov_21_1046,,LL-Kramer,1,23,45,fshfshfsh,water,water,first_gen_imitation,1,1,605.542289559,1
LSN102,2016_Nov_21_1046,,LL-Kramer,1,24,45,phfffft,water,tear,first_gen_imitation,0,1,681.904255878,0
LSN102,2016_Nov_21_1046,,LL-Kramer,2,25,35,phfffft,glass,tear,first_gen_imitation,0,0,2467.19502192,1
LSN102,2016_Nov_21_1046,,LL-Kramer,2,26,47,zerp,zipper,zipper,first_gen_imitation,1,1,1526.23457182,1
LSN102,2016_Nov_21_1046,,LL-Kramer,2,27,47,phfffft,zipper,tear,first_gen_imitation,0,0,1997.47228064,1
LSN102,2016_Nov_21_1046,,LL-Kramer,2,28,35,taateh,glass,glass,first_gen_imitation,1,0,2765.78984456,0
LSN102,2016_Nov_21_1046,,LL-Kramer,2,29,44,zerp,water,zipper,first_gen_imitation,0,0,3856.75989743,1
LSN102,2016_Nov_21_1046,,LL-Kramer,2,30,47,phfffft,zipper,tear,first_gen_imitation,0,0,1214.89776438,1
LSN102,2016_Nov_21_1046,,LL-Kramer,2,31,44,fshfshfsh,water,water,first_gen_imitation,1,1,1181.59697345,1
LSN102,2016_Nov_21_1046,,LL-Kramer,2,32,41,fshfshfsh,tear,water,first_gen_imitation,0,0,1834.7290149,1
LSN102,2016_Nov_21_1046,,LL-Kramer,2,33,47,phfffft,zipper,tear,first_gen_imitation,0,0,938.759538345,1
LSN102,2016_Nov_21_1046,,LL-Kramer,2,34,35,zerp,glass,zipper,first_gen_imitation,0,0,1893.08774192,1
LSN102,2016_Nov_21_1046,,LL-Kramer,2,35,35,phfffft,glass,tear,first_gen_imitation,0,0,1738.557884,1
LSN102,2016_Nov_21_1046,,LL-Kramer,2,36,41,taateh,tear,glass,first_gen_imitation,0,0,1167.26352042,1
LSN102,2016_Nov_21_1046,,LL-Kramer,2,37,35,taateh,glass,glass,first_gen_imitation,1,1,942.69019505,1
LSN102,2016_Nov_21_1046,,LL-Kramer,2,38,41,phfffft,tear,tear,first_gen_imitation,1,0,1853.06162294,0
LSN102,2016_Nov_21_1046,,LL-Kramer,2,39,41,phfffft,tear,tear,first_gen_imitation,1,1,914.372823667,1
LSN102,2016_Nov_21_1046,,LL-Kramer,2,40,41,phfffft,tear,tear,first_gen_imitation,1,1,735.64190045,1
LSN102,2016_Nov_21_1046,,LL-Kramer,2,41,47,zerp,zipper,zipper,first_gen_imitation,1,1,906.176700257,1
LSN102,2016_Nov_21_1046,,LL-Kramer,2,42,47,fshfshfsh,zipper,water,first_gen_imitation,0,0,1449.28972935,1
LSN102,2016_Nov_21_1046,,LL-Kramer,2,43,44,fshfshfsh,water,water,first_gen_imitation,1,1,926.820969675,1
LSN102,2016_Nov_21_1046,,LL-Kramer,2,44,44,zerp,water,zipper,first_gen_imitation,0,1,323.777271435,0
LSN102,2016_Nov_21_1046,,LL-Kramer,2,45,41,zerp,tear,zipper,first_gen_imitation,0,1,1096.25019226,0
LSN102,2016_Nov_21_1046,,LL-Kramer,2,46,44,zerp,water,zipper,first_gen_imitation,0,0,1609.76134427,1
LSN102,2016_Nov_21_1046,,LL-Kramer,2,47,35,zerp,glass,zipper,first_gen_imitation,0,0,1194.36168438,1
LSN102,2016_Nov_21_1046,,LL-Kramer,2,48,44,zerp,water,zipper,first_gen_imitation,0,0,1085.07022727,1
LSN102,2016_Nov_21_1046,,LL-Kramer,3,49,46,phfffft,zipper,tear,first_gen_imitation,0,0,1488.25284233,1
LSN102,2016_Nov_21_1046,,LL-Kramer,3,50,43,fshfshfsh,water,water,first_gen_imitation,1,1,1064.63017222,1
LSN102,2016_Nov_21_1046,,LL-Kramer,3,51,38,fshfshfsh,tear,water,first_gen_imitation,0,0,1449.06822918,1
LSN102,2016_Nov_21_1046,,LL-Kramer,3,52,37,zerp,glass,zipper,first_gen_imitation,0,0,1075.71251178,1
LSN102,2016_Nov_21_1046,,LL-Kramer,3,53,38,zerp,tear,zipper,first_gen_imitation,0,0,1913.46281907,1
LSN102,2016_Nov_21_1046,,LL-Kramer,3,54,38,phfffft,tear,tear,first_gen_imitation,1,1,5475.40778993,1
LSN102,2016_Nov_21_1046,,LL-Kramer,3,55,43,fshfshfsh,water,water,first_gen_imitation,1,1,806.792225689,1
LSN102,2016_Nov_21_1046,,LL-Kramer,3,56,46,zerp,zipper,zipper,first_gen_imitation,1,1,816.847728565,1
LSN102,2016_Nov_21_1046,,LL-Kramer,3,57,38,phfffft,tear,tear,first_gen_imitation,1,1,992.856319528,1
LSN102,2016_Nov_21_1046,,LL-Kramer,3,58,37,taateh,glass,glass,first_gen_imitation,1,1,949.540996924,1
LSN102,2016_Nov_21_1046,,LL-Kramer,3,59,46,zerp,zipper,zipper,first_gen_imitation,1,1,2489.39715,1
LSN102,2016_Nov_21_1046,,LL-Kramer,3,60,43,fshfshfsh,water,water,first_gen_imitation,1,1,917.013532948,1
LSN102,2016_Nov_21_1046,,LL-Kramer,3,61,46,fshfshfsh,zipper,water,first_gen_imitation,0,0,973.372362554,1
LSN102,2016_Nov_21_1046,,LL-Kramer,3,62,38,phfffft,tear,tear,first_gen_imitation,1,1,699.720884673,1
LSN102,2016_Nov_21_1046,,LL-Kramer,3,63,43,fshfshfsh,water,water,first_gen_imitation,1,1,790.413103066,1
LSN102,2016_Nov_21_1046,,LL-Kramer,3,64,43,zerp,water,zipper,first_gen_imitation,0,0,1248.69660987,1
LSN102,2016_Nov_21_1046,,LL-Kramer,3,65,46,taateh,zipper,glass,first_gen_imitation,0,0,1048.51992242,1
LSN102,2016_Nov_21_1046,,LL-Kramer,3,66,37,zerp,glass,zipper,first_gen_imitation,0,0,914.623770863,1
LSN102,2016_Nov_21_1046,,LL-Kramer,3,67,46,taateh,zipper,glass,first_gen_imitation,0,0,1472.36057092,1
LSN102,2016_Nov_21_1046,,LL-Kramer,3,68,38,phfffft,tear,tear,first_gen_imitation,1,1,1843.59315783,1
LSN102,2016_Nov_21_1046,,LL-Kramer,3,69,37,phfffft,glass,tear,first_gen_imitation,0,0,1024.68855632,1
LSN102,2016_Nov_21_1046,,LL-Kramer,3,70,37,taateh,glass,glass,first_gen_imitation,1,1,2904.84930342,1
LSN102,2016_Nov_21_1046,,LL-Kramer,3,71,43,zerp,water,zipper,first_gen_imitation,0,0,1022.41210453,1
LSN102,2016_Nov_21_1046,,LL-Kramer,3,72,37,taateh,glass,glass,first_gen_imitation,1,1,2015.39485808,1
LSN102,2016_Nov_21_1046,,LL-Kramer,4,73,39,fshfshfsh,tear,water,first_gen_imitation,0,0,5393.61780463,1
LSN102,2016_Nov_21_1046,,LL-Kramer,4,74,49,zerp,zipper,zipper,first_gen_imitation,1,1,1262.97980873,1
LSN102,2016_Nov_21_1046,,LL-Kramer,4,75,36,taateh,glass,glass,first_gen_imitation,1,0,916.895741597,0
LSN102,2016_Nov_21_1046,,LL-Kramer,4,76,49,zerp,zipper,zipper,first_gen_imitation,1,1,916.406009812,1
LSN102,2016_Nov_21_1046,,LL-Kramer,4,77,39,phfffft,tear,tear,first_gen_imitation,1,1,1073.70013092,1
LSN102,2016_Nov_21_1046,,LL-Kramer,4,78,36,taateh,glass,glass,first_gen_imitation,1,1,2115.62083894,1
LSN102,2016_Nov_21_1046,,LL-Kramer,4,79,49,zerp,zipper,zipper,first_gen_imitation,1,1,3599.11848325,1
LSN102,2016_Nov_21_1046,,LL-Kramer,4,80,39,phfffft,tear,tear,first_gen_imitation,1,1,832.7179146,1
LSN102,2016_Nov_21_1046,,LL-Kramer,4,81,39,zerp,tear,zipper,first_gen_imitation,0,0,580.278538633,1
LSN102,2016_Nov_21_1046,,LL-Kramer,4,82,36,zerp,glass,zipper,first_gen_imitation,0,0,1698.81408103,1
LSN102,2016_Nov_21_1046,,LL-Kramer,4,83,36,zerp,glass,zipper,first_gen_imitation,0,0,1058.9630492,1
LSN102,2016_Nov_21_1046,,LL-Kramer,4,84,39,taateh,tear,glass,first_gen_imitation,0,0,1747.74819473,1
LSN102,2016_Nov_21_1046,,LL-Kramer,4,85,36,taateh,glass,glass,first_gen_imitation,1,1,3655.18315323,1
LSN102,2016_Nov_21_1046,,LL-Kramer,4,86,42,fshfshfsh,water,water,first_gen_imitation,1,1,684.045951348,1
LSN102,2016_Nov_21_1046,,LL-Kramer,4,87,36,zerp,glass,zipper,first_gen_imitation,0,0,984.735736623,1
LSN102,2016_Nov_21_1046,,LL-Kramer,4,88,42,fshfshfsh,water,water,first_gen_imitation,1,1,1197.59871438,1
LSN102,2016_Nov_21_1046,,LL-Kramer,4,89,42,phfffft,water,tear,first_gen_imitation,0,0,1248.13933996,1
LSN102,2016_Nov_21_1046,,LL-Kramer,4,90,39,zerp,tear,zipper,first_gen_imitation,0,0,1799.19562349,1
LSN102,2016_Nov_21_1046,,LL-Kramer,4,91,49,zerp,zipper,zipper,first_gen_imitation,1,1,1828.1944585,1
LSN102,2016_Nov_21_1046,,LL-Kramer,4,92,42,phfffft,water,tear,first_gen_imitation,0,0,2685.31925371,1
LSN102,2016_Nov_21_1046,,LL-Kramer,4,93,42,fshfshfsh,water,water,first_gen_imitation,1,1,726.630838122,1
LSN102,2016_Nov_21_1046,,LL-Kramer,4,94,42,fshfshfsh,water,water,first_gen_imitation,1,1,912.625473458,1
LSN102,2016_Nov_21_1046,,LL-Kramer,4,95,49,zerp,zipper,zipper,first_gen_imitation,1,1,1571.47393189,1
LSN102,2016_Nov_21_1046,,LL-Kramer,4,96,49,zerp,zipper,zipper,first_gen_imitation,1,1,892.866562586,1
LSN103,2016_Nov_21_1039,,LL-George,1,1,35,da da da,glass,glass,last_gen_imitation,1,0,8090.77608061,0
LSN103,2016_Nov_21_1039,,LL-George,1,2,40,sheah,tear,tear,last_gen_imitation,1,1,1480.34479667,1
LSN103,2016_Nov_21_1039,,LL-George,1,3,40,izzip,tear,zipper,last_gen_imitation,0,0,1203.37434695,1
LSN103,2016_Nov_21_1039,,LL-George,1,4,35,eaverlusha,glass,water,last_gen_imitation,0,1,1385.7600122,0
LSN103,2016_Nov_21_1039,,LL-George,1,5,35,da da da,glass,glass,last_gen_imitation,1,1,867.273763171,1
LSN103,2016_Nov_21_1039,,LL-George,1,6,49,izzip,zipper,zipper,last_gen_imitation,1,1,888.092799345,1
LSN103,2016_Nov_21_1039,,LL-George,1,7,40,sheah,tear,tear,last_gen_imitation,1,1,632.202255889,1
LSN103,2016_Nov_21_1039,,LL-George,1,8,40,izzip,tear,zipper,last_gen_imitation,0,0,589.518782566,1
LSN103,2016_Nov_21_1039,,LL-George,1,9,40,da da da,tear,glass,last_gen_imitation,0,0,911.722511053,1
LSN103,2016_Nov_21_1039,,LL-George,1,10,49,izzip,zipper,zipper,last_gen_imitation,1,1,665.252419887,1
LSN103,2016_Nov_21_1039,,LL-George,1,11,35,da da da,glass,glass,last_gen_imitation,1,1,959.89097876,1
LSN103,2016_Nov_21_1039,,LL-George,1,12,45,eaverlusha,water,water,last_gen_imitation,1,1,830.114334822,1
LSN103,2016_Nov_21_1039,,LL-George,1,13,45,eaverlusha,water,water,last_gen_imitation,1,1,1289.78861519,1
LSN103,2016_Nov_21_1039,,LL-George,1,14,45,izzip,water,zipper,last_gen_imitation,0,0,885.32277476,1
LSN103,2016_Nov_21_1039,,LL-George,1,15,49,eaverlusha,zipper,water,last_gen_imitation,0,0,4122.4991678,1
LSN103,2016_Nov_21_1039,,LL-George,1,16,49,da da da,zipper,glass,last_gen_imitation,0,0,1340.21144884,1
LSN103,2016_Nov_21_1039,,LL-George,1,17,45,da da da,water,glass,last_gen_imitation,0,0,692.165253917,1
LSN103,2016_Nov_21_1039,,LL-George,1,18,35,eaverlusha,glass,water,last_gen_imitation,0,0,1351.77647753,1
LSN103,2016_Nov_21_1039,,LL-George,1,19,49,eaverlusha,zipper,water,last_gen_imitation,0,0,2338.00477569,1
LSN103,2016_Nov_21_1039,,LL-George,1,20,45,eaverlusha,water,water,last_gen_imitation,1,1,6341.46842675,1
LSN103,2016_Nov_21_1039,,LL-George,1,21,49,sheah,zipper,tear,last_gen_imitation,0,0,1026.39333461,1
LSN103,2016_Nov_21_1039,,LL-George,1,22,40,sheah,tear,tear,last_gen_imitation,1,1,1746.24795152,1
LSN103,2016_Nov_21_1039,,LL-George,1,23,45,eaverlusha,water,water,last_gen_imitation,1,1,481.42540711,1
LSN103,2016_Nov_21_1039,,LL-George,1,24,35,da da da,glass,glass,last_gen_imitation,1,1,390.913717565,1
LSN103,2016_Nov_21_1039,,LL-George,2,25,48,eaverlusha,zipper,water,last_gen_imitation,0,0,893.557948293,1
LSN103,2016_Nov_21_1039,,LL-George,2,26,48,izzip,zipper,zipper,last_gen_imitation,1,0,984.624667093,0
LSN103,2016_Nov_21_1039,,LL-George,2,27,36,da da da,glass,glass,last_gen_imitation,1,1,356.129327556,1
LSN103,2016_Nov_21_1039,,LL-George,2,28,43,eaverlusha,water,water,last_gen_imitation,1,1,588.402002468,1
LSN103,2016_Nov_21_1039,,LL-George,2,29,41,da da da,tear,glass,last_gen_imitation,0,0,721.246030997,1
LSN103,2016_Nov_21_1039,,LL-George,2,30,36,da da da,glass,glass,last_gen_imitation,1,1,382.790574105,1
LSN103,2016_Nov_21_1039,,LL-George,2,31,41,sheah,tear,tear,last_gen_imitation,1,1,361.492049065,1
LSN103,2016_Nov_21_1039,,LL-George,2,32,43,da da da,water,glass,last_gen_imitation,0,0,653.556155972,1
LSN103,2016_Nov_21_1039,,LL-George,2,33,36,sheah,glass,tear,last_gen_imitation,0,0,583.188120974,1
LSN103,2016_Nov_21_1039,,LL-George,2,34,43,sheah,water,tear,last_gen_imitation,0,0,607.611645944,1
LSN103,2016_Nov_21_1039,,LL-George,2,35,41,sheah,tear,tear,last_gen_imitation,1,1,717.779499129,1
LSN103,2016_Nov_21_1039,,LL-George,2,36,36,sheah,glass,tear,last_gen_imitation,0,0,568.783608964,1
LSN103,2016_Nov_21_1039,,LL-George,2,37,41,sheah,tear,tear,last_gen_imitation,1,1,593.459681957,1
LSN103,2016_Nov_21_1039,,LL-George,2,38,43,izzip,water,zipper,last_gen_imitation,0,0,506.625140901,1
LSN103,2016_Nov_21_1039,,LL-George,2,39,48,sheah,zipper,tear,last_gen_imitation,0,0,607.708311989,1
LSN103,2016_Nov_21_1039,,LL-George,2,40,43,da da da,water,glass,last_gen_imitation,0,0,573.11213261,1
LSN103,2016_Nov_21_1039,,LL-George,2,41,48,eaverlusha,zipper,water,last_gen_imitation,0,0,606.453254586,1
LSN103,2016_Nov_21_1039,,LL-George,2,42,36,da da da,glass,glass,last_gen_imitation,1,1,440.496645519,1
LSN103,2016_Nov_21_1039,,LL-George,2,43,41,eaverlusha,tear,water,last_gen_imitation,0,0,644.362004474,1
LSN103,2016_Nov_21_1039,,LL-George,2,44,36,da da da,glass,glass,last_gen_imitation,1,1,460.16529249,1
LSN103,2016_Nov_21_1039,,LL-George,2,45,43,sheah,water,tear,last_gen_imitation,0,0,602.840763633,1
LSN103,2016_Nov_21_1039,,LL-George,2,46,48,izzip,zipper,zipper,last_gen_imitation,1,1,448.586500017,1
LSN103,2016_Nov_21_1039,,LL-George,2,47,41,izzip,tear,zipper,last_gen_imitation,0,0,451.084771543,1
LSN103,2016_Nov_21_1039,,LL-George,2,48,48,sheah,zipper,tear,last_gen_imitation,0,0,504.714547191,1
LSN103,2016_Nov_21_1039,,LL-George,3,49,38,eaverlusha,tear,water,last_gen_imitation,0,0,931.351467269,1
LSN103,2016_Nov_21_1039,,LL-George,3,50,42,da da da,water,glass,last_gen_imitation,0,0,477.625985863,1
LSN103,2016_Nov_21_1039,,LL-George,3,51,34,da da da,glass,glass,last_gen_imitation,1,1,397.37017313,1
LSN103,2016_Nov_21_1039,,LL-George,3,52,42,izzip,water,zipper,last_gen_imitation,0,0,527.83468191,1
LSN103,2016_Nov_21_1039,,LL-George,3,53,42,da da da,water,glass,last_gen_imitation,0,0,579.041726422,1
LSN103,2016_Nov_21_1039,,LL-George,3,54,34,da da da,glass,glass,last_gen_imitation,1,1,687.185675488,1
LSN103,2016_Nov_21_1039,,LL-George,3,55,34,da da da,glass,glass,last_gen_imitation,1,1,562.429261045,1
LSN103,2016_Nov_21_1039,,LL-George,3,56,46,izzip,zipper,zipper,last_gen_imitation,1,1,502.260767738,1
LSN103,2016_Nov_21_1039,,LL-George,3,57,34,sheah,glass,tear,last_gen_imitation,0,0,468.219617498,1
LSN103,2016_Nov_21_1039,,LL-George,3,58,46,izzip,zipper,zipper,last_gen_imitation,1,1,736.842863378,1
LSN103,2016_Nov_21_1039,,LL-George,3,59,38,sheah,tear,tear,last_gen_imitation,1,1,1196.40735432,1
LSN103,2016_Nov_21_1039,,LL-George,3,60,42,eaverlusha,water,water,last_gen_imitation,1,1,387.99037179,1
LSN103,2016_Nov_21_1039,,LL-George,3,61,46,sheah,zipper,tear,last_gen_imitation,0,0,409.506555297,1
LSN103,2016_Nov_21_1039,,LL-George,3,62,34,da da da,glass,glass,last_gen_imitation,1,1,373.290740536,1
LSN103,2016_Nov_21_1039,,LL-George,3,63,38,da da da,tear,glass,last_gen_imitation,0,0,737.593144993,1
LSN103,2016_Nov_21_1039,,LL-George,3,64,38,sheah,tear,tear,last_gen_imitation,1,1,426.70157738,1
LSN103,2016_Nov_21_1039,,LL-George,3,65,42,eaverlusha,water,water,last_gen_imitation,1,1,424.396637827,1
LSN103,2016_Nov_21_1039,,LL-George,3,66,38,sheah,tear,tear,last_gen_imitation,1,1,1072.39834068,1
LSN103,2016_Nov_21_1039,,LL-George,3,67,42,eaverlusha,water,water,last_gen_imitation,1,1,2636.72923285,1
LSN103,2016_Nov_21_1039,,LL-George,3,68,46,sheah,zipper,tear,last_gen_imitation,0,0,1409.80903665,1
LSN103,2016_Nov_21_1039,,LL-George,3,69,34,da da da,glass,glass,last_gen_imitation,1,1,1332.47560938,1
LSN103,2016_Nov_21_1039,,LL-George,3,70,38,izzip,tear,zipper,last_gen_imitation,0,0,586.804773076,1
LSN103,2016_Nov_21_1039,,LL-George,3,71,46,da da da,zipper,glass,last_gen_imitation,0,0,533.699938562,1
LSN103,2016_Nov_21_1039,,LL-George,3,72,46,izzip,zipper,zipper,last_gen_imitation,1,1,1543.98014187,1
LSN103,2016_Nov_21_1039,,LL-George,4,73,47,eaverlusha,zipper,water,last_gen_imitation,0,0,551.432064967,1
LSN103,2016_Nov_21_1039,,LL-George,4,74,44,eaverlusha,water,water,last_gen_imitation,1,1,409.228080534,1
LSN103,2016_Nov_21_1039,,LL-George,4,75,39,sheah,tear,tear,last_gen_imitation,1,1,378.134282539,1
LSN103,2016_Nov_21_1039,,LL-George,4,76,39,da da da,tear,glass,last_gen_imitation,0,0,455.813722685,1
LSN103,2016_Nov_21_1039,,LL-George,4,77,44,sheah,water,tear,last_gen_imitation,0,0,464.808460558,1
LSN103,2016_Nov_21_1039,,LL-George,4,78,37,izzip,glass,zipper,last_gen_imitation,0,0,585.466493387,1
LSN103,2016_Nov_21_1039,,LL-George,4,79,37,da da da,glass,glass,last_gen_imitation,1,1,347.861825256,1
LSN103,2016_Nov_21_1039,,LL-George,4,80,39,da da da,tear,glass,last_gen_imitation,0,0,529.801290599,1
LSN103,2016_Nov_21_1039,,LL-George,4,81,44,da da da,water,glass,last_gen_imitation,0,0,454.98213917,1
LSN103,2016_Nov_21_1039,,LL-George,4,82,37,da da da,glass,glass,last_gen_imitation,1,1,430.794197484,1
LSN103,2016_Nov_21_1039,,LL-George,4,83,47,da da da,zipper,glass,last_gen_imitation,0,0,576.51336689,1
LSN103,2016_Nov_21_1039,,LL-George,4,84,47,da da da,zipper,glass,last_gen_imitation,0,0,481.647866894,1
LSN103,2016_Nov_21_1039,,LL-George,4,85,39,sheah,tear,tear,last_gen_imitation,1,1,525.645293528,1
LSN103,2016_Nov_21_1039,,LL-George,4,86,47,izzip,zipper,zipper,last_gen_imitation,1,1,392.832953483,1
LSN103,2016_Nov_21_1039,,LL-George,4,87,39,sheah,tear,tear,last_gen_imitation,1,1,554.593554814,1
LSN103,2016_Nov_21_1039,,LL-George,4,88,44,eaverlusha,water,water,last_gen_imitation,1,1,455.168109271,1
LSN103,2016_Nov_21_1039,,LL-George,4,89,37,sheah,glass,tear,last_gen_imitation,0,0,1171.58980342,1
LSN103,2016_Nov_21_1039,,LL-George,4,90,44,eaverlusha,water,water,last_gen_imitation,1,1,636.805733433,1
LSN103,2016_Nov_21_1039,,LL-George,4,91,47,izzip,zipper,zipper,last_gen_imitation,1,1,467.524070526,1
LSN103,2016_Nov_21_1039,,LL-George,4,92,47,sheah,zipper,tear,last_gen_imitation,0,0,508.331519435,1
LSN103,2016_Nov_21_1039,,LL-George,4,93,37,izzip,glass,zipper,last_gen_imitation,0,0,1435.88740658,1
LSN103,2016_Nov_21_1039,,LL-George,4,94,39,da da da,tear,glass,last_gen_imitation,0,0,635.909812525,1
LSN103,2016_Nov_21_1039,,LL-George,4,95,44,eaverlusha,water,water,last_gen_imitation,1,1,506.371632684,1
LSN103,2016_Nov_21_1039,,LL-George,4,96,37,da da da,glass,glass,last_gen_imitation,1,1,978.560637101,1
LSN104,2016_Nov_21_1106,,LL-George,1,1,46,brrip,zipper,zipper,sound_effect,1,1,1860.00556941,1
LSN104,2016_Nov_21_1106,,LL-George,1,2,35,brrip,glass,zipper,sound_effect,0,0,1948.061559,1
LSN104,2016_Nov_21_1106,,LL-George,1,3,45,cleek,water,glass,sound_effect,0,1,1505.23756782,0
LSN104,2016_Nov_21_1106,,LL-George,1,4,40,brrip,tear,zipper,sound_effect,0,1,1456.79702703,0
LSN104,2016_Nov_21_1106,,LL-George,1,5,45,blowosh,water,water,sound_effect,1,0,724.549638922,0
LSN104,2016_Nov_21_1106,,LL-George,1,6,40,crish,tear,tear,sound_effect,1,1,273.411412956,1
LSN104,2016_Nov_21_1106,,LL-George,1,7,45,blowosh,water,water,sound_effect,1,0,237.263136311,0
LSN104,2016_Nov_21_1106,,LL-George,1,8,45,blowosh,water,water,sound_effect,1,1,1062.31851119,1
LSN104,2016_Nov_21_1106,,LL-George,1,9,46,crish,zipper,tear,sound_effect,0,1,646.269397228,0
LSN104,2016_Nov_21_1106,,LL-George,1,10,35,cleek,glass,glass,sound_effect,1,0,599.851160077,0
LSN104,2016_Nov_21_1106,,LL-George,1,11,46,cleek,zipper,glass,sound_effect,0,0,1155.59062269,1
LSN104,2016_Nov_21_1106,,LL-George,1,12,45,blowosh,water,water,sound_effect,1,0,2560.27540204,0
LSN104,2016_Nov_21_1106,,LL-George,1,13,35,crish,glass,tear,sound_effect,0,0,3395.66699532,1
LSN104,2016_Nov_21_1106,,LL-George,1,14,45,blowosh,water,water,sound_effect,1,1,517.520869616,1
LSN104,2016_Nov_21_1106,,LL-George,1,15,46,brrip,zipper,zipper,sound_effect,1,0,862.60114715,0
LSN104,2016_Nov_21_1106,,LL-George,1,16,40,crish,tear,tear,sound_effect,1,1,859.911784297,1
LSN104,2016_Nov_21_1106,,LL-George,1,17,35,cleek,glass,glass,sound_effect,1,0,589.156125207,0
LSN104,2016_Nov_21_1106,,LL-George,1,18,40,brrip,tear,zipper,sound_effect,0,1,558.458593674,0
LSN104,2016_Nov_21_1106,,LL-George,1,19,46,brrip,zipper,zipper,sound_effect,1,0,404.732152005,0
LSN104,2016_Nov_21_1106,,LL-George,1,20,35,brrip,glass,zipper,sound_effect,0,0,524.490423035,1
LSN104,2016_Nov_21_1106,,LL-George,1,21,40,crish,tear,tear,sound_effect,1,0,1811.47668499,0
LSN104,2016_Nov_21_1106,,LL-George,1,22,40,crish,tear,tear,sound_effect,1,1,284.143257653,1
LSN104,2016_Nov_21_1106,,LL-George,1,23,35,crish,glass,tear,sound_effect,0,0,4347.7312302,1
LSN104,2016_Nov_21_1106,,LL-George,1,24,46,cleek,zipper,glass,sound_effect,0,1,325.930490158,0
LSN104,2016_Nov_21_1106,,LL-George,2,25,43,brrip,water,zipper,sound_effect,0,1,543.448158889,0
LSN104,2016_Nov_21_1106,,LL-George,2,26,48,crish,zipper,tear,sound_effect,0,0,277.709848364,1
LSN104,2016_Nov_21_1106,,LL-George,2,27,48,brrip,zipper,zipper,sound_effect,1,0,713.362951996,0
LSN104,2016_Nov_21_1106,,LL-George,2,28,34,blowosh,glass,water,sound_effect,0,1,1520.93586756,0
LSN104,2016_Nov_21_1106,,LL-George,2,29,34,blowosh,glass,water,sound_effect,0,0,526.184318354,1
LSN104,2016_Nov_21_1106,,LL-George,2,30,43,blowosh,water,water,sound_effect,1,0,1415.24441773,0
LSN104,2016_Nov_21_1106,,LL-George,2,31,43,blowosh,water,water,sound_effect,1,0,284.998207469,0
LSN104,2016_Nov_21_1106,,LL-George,2,32,48,cleek,zipper,glass,sound_effect,0,1,1230.31694919,0
LSN104,2016_Nov_21_1106,,LL-George,2,33,34,cleek,glass,glass,sound_effect,1,0,1391.96808101,0
LSN104,2016_Nov_21_1106,,LL-George,2,34,34,cleek,glass,glass,sound_effect,1,1,1244.57966303,1
LSN104,2016_Nov_21_1106,,LL-George,2,35,38,crish,tear,tear,sound_effect,1,1,1163.78482536,1
LSN104,2016_Nov_21_1106,,LL-George,2,36,34,cleek,glass,glass,sound_effect,1,1,988.030382548,1
LSN104,2016_Nov_21_1106,,LL-George,2,37,38,crish,tear,tear,sound_effect,1,1,277.323504561,1
LSN104,2016_Nov_21_1106,,LL-George,2,38,38,cleek,tear,glass,sound_effect,0,1,307.461205637,0
LSN104,2016_Nov_21_1106,,LL-George,2,39,43,brrip,water,zipper,sound_effect,0,1,1157.07998304,0
LSN104,2016_Nov_21_1106,,LL-George,2,40,34,cleek,glass,glass,sound_effect,1,1,350.520139793,1
LSN104,2016_Nov_21_1106,,LL-George,2,41,48,cleek,zipper,glass,sound_effect,0,1,384.163743118,0
LSN104,2016_Nov_21_1106,,LL-George,2,42,48,brrip,zipper,zipper,sound_effect,1,0,819.642079878,0
LSN104,2016_Nov_21_1106,,LL-George,2,43,38,cleek,tear,glass,sound_effect,0,1,321.245710831,0
LSN104,2016_Nov_21_1106,,LL-George,2,44,38,cleek,tear,glass,sound_effect,0,0,872.193165589,1
LSN104,2016_Nov_21_1106,,LL-George,2,45,43,brrip,water,zipper,sound_effect,0,0,699.933422147,1
LSN104,2016_Nov_21_1106,,LL-George,2,46,43,blowosh,water,water,sound_effect,1,1,691.785952076,1
LSN104,2016_Nov_21_1106,,LL-George,2,47,48,brrip,zipper,zipper,sound_effect,1,0,1155.14698357,0
LSN104,2016_Nov_21_1106,,LL-George,2,48,38,crish,tear,tear,sound_effect,1,0,518.480487633,0
LSN104,2016_Nov_21_1106,,LL-George,3,49,39,crish,tear,tear,sound_effect,1,1,477.419530391,1
LSN104,2016_Nov_21_1106,,LL-George,3,50,47,crish,zipper,tear,sound_effect,0,1,626.538333483,0
LSN104,2016_Nov_21_1106,,LL-George,3,51,47,blowosh,zipper,water,sound_effect,0,1,1009.38364235,0
LSN104,2016_Nov_21_1106,,LL-George,3,52,36,cleek,glass,glass,sound_effect,1,1,550.242945319,1
LSN104,2016_Nov_21_1106,,LL-George,3,53,36,blowosh,glass,water,sound_effect,0,0,319.985532085,1
LSN104,2016_Nov_21_1106,,LL-George,3,54,36,cleek,glass,glass,sound_effect,1,1,534.182628267,1
LSN104,2016_Nov_21_1106,,LL-George,3,55,36,brrip,glass,zipper,sound_effect,0,0,1504.19696816,1
LSN104,2016_Nov_21_1106,,LL-George,3,56,39,crish,tear,tear,sound_effect,1,1,539.858713979,1
LSN104,2016_Nov_21_1106,,LL-George,3,57,42,cleek,water,glass,sound_effect,0,1,341.212037718,0
LSN104,2016_Nov_21_1106,,LL-George,3,58,42,crish,water,tear,sound_effect,0,1,758.82829295,0
LSN104,2016_Nov_21_1106,,LL-George,3,59,36,cleek,glass,glass,sound_effect,1,1,1213.29797443,1
LSN104,2016_Nov_21_1106,,LL-George,3,60,42,blowosh,water,water,sound_effect,1,0,406.581929303,0
LSN104,2016_Nov_21_1106,,LL-George,3,61,39,brrip,tear,zipper,sound_effect,0,1,405.347357388,0
LSN104,2016_Nov_21_1106,,LL-George,3,62,47,brrip,zipper,zipper,sound_effect,1,0,177.361914888,0
LSN104,2016_Nov_21_1106,,LL-George,3,63,39,blowosh,tear,water,sound_effect,0,1,328.232548898,0
LSN104,2016_Nov_21_1106,,LL-George,3,64,42,blowosh,water,water,sound_effect,1,0,845.159658929,0
LSN104,2016_Nov_21_1106,,LL-George,3,65,39,blowosh,tear,water,sound_effect,0,1,330.461628153,0
LSN104,2016_Nov_21_1106,,LL-George,3,66,39,crish,tear,tear,sound_effect,1,0,601.830572123,0
LSN104,2016_Nov_21_1106,,LL-George,3,67,36,blowosh,glass,water,sound_effect,0,0,576.392374234,1
LSN104,2016_Nov_21_1106,,LL-George,3,68,47,blowosh,zipper,water,sound_effect,0,1,277.83884306,0
LSN104,2016_Nov_21_1106,,LL-George,3,69,42,blowosh,water,water,sound_effect,1,0,181.250320165,0
LSN104,2016_Nov_21_1106,,LL-George,3,70,47,cleek,zipper,glass,sound_effect,0,1,234.881056007,0
LSN104,2016_Nov_21_1106,,LL-George,3,71,42,cleek,water,glass,sound_effect,0,1,200.792212971,0
LSN104,2016_Nov_21_1106,,LL-George,3,72,47,crish,zipper,tear,sound_effect,0,0,332.08702493,1
LSN104,2016_Nov_21_1106,,LL-George,4,73,49,brrip,zipper,zipper,sound_effect,1,1,664.650338003,1
LSN104,2016_Nov_21_1106,,LL-George,4,74,44,brrip,water,zipper,sound_effect,0,1,703.59744702,0
LSN104,2016_Nov_21_1106,,LL-George,4,75,41,cleek,tear,glass,sound_effect,0,1,581.731089274,0
LSN104,2016_Nov_21_1106,,LL-George,4,76,41,cleek,tear,glass,sound_effect,0,0,435.754570761,1
LSN104,2016_Nov_21_1106,,LL-George,4,77,44,blowosh,water,water,sound_effect,1,1,329.331724439,1
LSN104,2016_Nov_21_1106,,LL-George,4,78,44,blowosh,water,water,sound_effect,1,1,510.219387012,1
LSN104,2016_Nov_21_1106,,LL-George,4,79,44,blowosh,water,water,sound_effect,1,1,420.333785703,1
LSN104,2016_Nov_21_1106,,LL-George,4,80,37,cleek,glass,glass,sound_effect,1,1,535.60829151,1
LSN104,2016_Nov_21_1106,,LL-George,4,81,37,cleek,glass,glass,sound_effect,1,1,366.785311839,1
LSN104,2016_Nov_21_1106,,LL-George,4,82,49,brrip,zipper,zipper,sound_effect,1,1,1583.57446478,1
LSN104,2016_Nov_21_1106,,LL-George,4,83,37,cleek,glass,glass,sound_effect,1,1,308.269742876,1
LSN104,2016_Nov_21_1106,,LL-George,4,84,41,crish,tear,tear,sound_effect,1,0,1400.53710446,0
LSN104,2016_Nov_21_1106,,LL-George,4,85,49,crish,zipper,tear,sound_effect,0,0,2396.03125316,1
LSN104,2016_Nov_21_1106,,LL-George,4,86,49,blowosh,zipper,water,sound_effect,0,0,1389.20477824,1
LSN104,2016_Nov_21_1106,,LL-George,4,87,49,brrip,zipper,zipper,sound_effect,1,1,712.765991571,1
LSN104,2016_Nov_21_1106,,LL-George,4,88,44,blowosh,water,water,sound_effect,1,1,599.198504584,1
LSN104,2016_Nov_21_1106,,LL-George,4,89,41,crish,tear,tear,sound_effect,1,1,1424.49682485,1
LSN104,2016_Nov_21_1106,,LL-George,4,90,37,cleek,glass,glass,sound_effect,1,1,2203.88680475,1
LSN104,2016_Nov_21_1106,,LL-George,4,91,37,cleek,glass,glass,sound_effect,1,1,592.377151013,1
LSN104,2016_Nov_21_1106,,LL-George,4,92,37,cleek,glass,glass,sound_effect,1,1,380.619110423,1
LSN104,2016_Nov_21_1106,,LL-George,4,93,41,cleek,tear,glass,sound_effect,0,0,1114.01592742,1
LSN104,2016_Nov_21_1106,,LL-George,4,94,49,brrip,zipper,zipper,sound_effect,1,1,802.278372459,1
LSN104,2016_Nov_21_1106,,LL-George,4,95,41,cleek,tear,glass,sound_effect,0,0,1198.55289103,1
LSN104,2016_Nov_21_1106,,LL-George,4,96,44,blowosh,water,water,sound_effect,1,1,838.703843649,1
LSN105,2016_Nov_21_1114,,LL-ELAINE,1,1,46,grrir,zipper,zipper,first_gen_imitation,1,0,2343.562569,0
LSN105,2016_Nov_21_1114,,LL-ELAINE,1,2,41,pcht,tear,tear,first_gen_imitation,1,1,1433.90266132,1
LSN105,2016_Nov_21_1114,,LL-ELAINE,1,3,45,boonk,water,glass,first_gen_imitation,0,0,623.032505158,1
LSN105,2016_Nov_21_1114,,LL-ELAINE,1,4,41,pcht,tear,tear,first_gen_imitation,1,0,1017.56093651,0
LSN105,2016_Nov_21_1114,,LL-ELAINE,1,5,41,pcht,tear,tear,first_gen_imitation,1,1,711.783685256,1
LSN105,2016_Nov_21_1114,,LL-ELAINE,1,6,46,grrir,zipper,zipper,first_gen_imitation,1,1,1085.50773794,1
LSN105,2016_Nov_21_1114,,LL-ELAINE,1,7,46,boonk,zipper,glass,first_gen_imitation,0,0,550.77765137,1
LSN105,2016_Nov_21_1114,,LL-ELAINE,1,8,36,pcht,glass,tear,first_gen_imitation,0,0,718.969959766,1
LSN105,2016_Nov_21_1114,,LL-ELAINE,1,9,41,pcht,tear,tear,first_gen_imitation,1,1,505.093225278,1
LSN105,2016_Nov_21_1114,,LL-ELAINE,1,10,45,ashtoosh,water,water,first_gen_imitation,1,1,1218.033385,1
LSN105,2016_Nov_21_1114,,LL-ELAINE,1,11,46,ashtoosh,zipper,water,first_gen_imitation,0,0,861.938127317,1
LSN105,2016_Nov_21_1114,,LL-ELAINE,1,12,36,boonk,glass,glass,first_gen_imitation,1,1,1365.93537405,1
LSN105,2016_Nov_21_1114,,LL-ELAINE,1,13,41,boonk,tear,glass,first_gen_imitation,0,0,596.177520696,1
LSN105,2016_Nov_21_1114,,LL-ELAINE,1,14,45,ashtoosh,water,water,first_gen_imitation,1,1,750.404430088,1
LSN105,2016_Nov_21_1114,,LL-ELAINE,1,15,36,grrir,glass,zipper,first_gen_imitation,0,0,809.69575746,1
LSN105,2016_Nov_21_1114,,LL-ELAINE,1,16,45,grrir,water,zipper,first_gen_imitation,0,0,917.053598445,1
LSN105,2016_Nov_21_1114,,LL-ELAINE,1,17,46,grrir,zipper,zipper,first_gen_imitation,1,1,2031.46455856,1
LSN105,2016_Nov_21_1114,,LL-ELAINE,1,18,45,ashtoosh,water,water,first_gen_imitation,1,1,370.939295273,1
LSN105,2016_Nov_21_1114,,LL-ELAINE,1,19,36,grrir,glass,zipper,first_gen_imitation,0,0,724.726085085,1
LSN105,2016_Nov_21_1114,,LL-ELAINE,1,20,45,ashtoosh,water,water,first_gen_imitation,1,1,729.475217406,1
LSN105,2016_Nov_21_1114,,LL-ELAINE,1,21,36,ashtoosh,glass,water,first_gen_imitation,0,0,685.16204413,1
LSN105,2016_Nov_21_1114,,LL-ELAINE,1,22,46,pcht,zipper,tear,first_gen_imitation,0,0,730.869516265,1
LSN105,2016_Nov_21_1114,,LL-ELAINE,1,23,36,pcht,glass,tear,first_gen_imitation,0,0,634.74929193,1
LSN105,2016_Nov_21_1114,,LL-ELAINE,1,24,41,grrir,tear,zipper,first_gen_imitation,0,1,528.484867886,0
LSN105,2016_Nov_21_1114,,LL-ELAINE,2,25,48,boonk,zipper,glass,first_gen_imitation,0,1,797.149624676,0
LSN105,2016_Nov_21_1114,,LL-ELAINE,2,26,37,boonk,glass,glass,first_gen_imitation,1,1,1057.6070291,1
LSN105,2016_Nov_21_1114,,LL-ELAINE,2,27,37,grrir,glass,zipper,first_gen_imitation,0,0,790.3676196,1
LSN105,2016_Nov_21_1114,,LL-ELAINE,2,28,44,boonk,water,glass,first_gen_imitation,0,0,1241.70638435,1
LSN105,2016_Nov_21_1114,,LL-ELAINE,2,29,48,ashtoosh,zipper,water,first_gen_imitation,0,1,1180.78421336,0
LSN105,2016_Nov_21_1114,,LL-ELAINE,2,30,38,boonk,tear,glass,first_gen_imitation,0,0,881.618360057,1
LSN105,2016_Nov_21_1114,,LL-ELAINE,2,31,48,grrir,zipper,zipper,first_gen_imitation,1,1,834.882127587,1
LSN105,2016_Nov_21_1114,,LL-ELAINE,2,32,48,pcht,zipper,tear,first_gen_imitation,0,0,557.211721782,1
LSN105,2016_Nov_21_1114,,LL-ELAINE,2,33,44,ashtoosh,water,water,first_gen_imitation,1,1,1262.09977129,1
LSN105,2016_Nov_21_1114,,LL-ELAINE,2,34,44,pcht,water,tear,first_gen_imitation,0,0,745.398268104,1
LSN105,2016_Nov_21_1114,,LL-ELAINE,2,35,44,boonk,water,glass,first_gen_imitation,0,0,509.61669581,1
LSN105,2016_Nov_21_1114,,LL-ELAINE,2,36,38,ashtoosh,tear,water,first_gen_imitation,0,0,674.443928525,1
LSN105,2016_Nov_21_1114,,LL-ELAINE,2,37,38,ashtoosh,tear,water,first_gen_imitation,0,0,671.451754868,1
LSN105,2016_Nov_21_1114,,LL-ELAINE,2,38,37,pcht,glass,tear,first_gen_imitation,0,0,914.156490471,1
LSN105,2016_Nov_21_1114,,LL-ELAINE,2,39,38,grrir,tear,zipper,first_gen_imitation,0,1,1211.39734006,0
LSN105,2016_Nov_21_1114,,LL-ELAINE,2,40,37,pcht,glass,tear,first_gen_imitation,0,1,639.364947565,0
LSN105,2016_Nov_21_1114,,LL-ELAINE,2,41,44,boonk,water,glass,first_gen_imitation,0,0,2923.08659945,1
LSN105,2016_Nov_21_1114,,LL-ELAINE,2,42,48,grrir,zipper,zipper,first_gen_imitation,1,1,1411.37077287,1
LSN105,2016_Nov_21_1114,,LL-ELAINE,2,43,37,boonk,glass,glass,first_gen_imitation,1,1,703.133012168,1
LSN105,2016_Nov_21_1114,,LL-ELAINE,2,44,38,pcht,tear,tear,first_gen_imitation,1,1,676.389418077,1
LSN105,2016_Nov_21_1114,,LL-ELAINE,2,45,38,pcht,tear,tear,first_gen_imitation,1,1,401.972056367,1
LSN105,2016_Nov_21_1114,,LL-ELAINE,2,46,48,grrir,zipper,zipper,first_gen_imitation,1,1,530.198934022,1
LSN105,2016_Nov_21_1114,,LL-ELAINE,2,47,44,boonk,water,glass,first_gen_imitation,0,0,913.894659374,1
LSN105,2016_Nov_21_1114,,LL-ELAINE,2,48,37,boonk,glass,glass,first_gen_imitation,1,1,3087.385369,1
LSN105,2016_Nov_21_1114,,LL-ELAINE,3,49,35,boonk,glass,glass,first_gen_imitation,1,1,727.604628541,1
LSN105,2016_Nov_21_1114,,LL-ELAINE,3,50,35,ashtoosh,glass,water,first_gen_imitation,0,0,710.746922996,1
LSN105,2016_Nov_21_1114,,LL-ELAINE,3,51,39,boonk,tear,glass,first_gen_imitation,0,0,676.142951008,1
LSN105,2016_Nov_21_1114,,LL-ELAINE,3,52,43,grrir,water,zipper,first_gen_imitation,0,0,823.864411097,1
LSN105,2016_Nov_21_1114,,LL-ELAINE,3,53,35,boonk,glass,glass,first_gen_imitation,1,1,428.354592528,1
LSN105,2016_Nov_21_1114,,LL-ELAINE,3,54,35,ashtoosh,glass,water,first_gen_imitation,0,0,631.054206751,1
LSN105,2016_Nov_21_1114,,LL-ELAINE,3,55,43,ashtoosh,water,water,first_gen_imitation,1,1,378.044267651,1
LSN105,2016_Nov_21_1114,,LL-ELAINE,3,56,39,pcht,tear,tear,first_gen_imitation,1,0,655.774850398,0
LSN105,2016_Nov_21_1114,,LL-ELAINE,3,57,49,grrir,zipper,zipper,first_gen_imitation,1,1,609.652865678,1
LSN105,2016_Nov_21_1114,,LL-ELAINE,3,58,49,grrir,zipper,zipper,first_gen_imitation,1,1,257.450826932,1
LSN105,2016_Nov_21_1114,,LL-ELAINE,3,59,43,ashtoosh,water,water,first_gen_imitation,1,1,597.560296301,1
LSN105,2016_Nov_21_1114,,LL-ELAINE,3,60,39,ashtoosh,tear,water,first_gen_imitation,0,0,914.257638156,1
LSN105,2016_Nov_21_1114,,LL-ELAINE,3,61,39,ashtoosh,tear,water,first_gen_imitation,0,0,639.262519311,1
LSN105,2016_Nov_21_1114,,LL-ELAINE,3,62,35,boonk,glass,glass,first_gen_imitation,1,1,403.577293269,1
LSN105,2016_Nov_21_1114,,LL-ELAINE,3,63,39,grrir,tear,zipper,first_gen_imitation,0,0,944.542355835,1
LSN105,2016_Nov_21_1114,,LL-ELAINE,3,64,49,grrir,zipper,zipper,first_gen_imitation,1,1,1255.95634012,1
LSN105,2016_Nov_21_1114,,LL-ELAINE,3,65,49,boonk,zipper,glass,first_gen_imitation,0,0,847.289342433,1
LSN105,2016_Nov_21_1114,,LL-ELAINE,3,66,35,pcht,glass,tear,first_gen_imitation,0,0,518.132932484,1
LSN105,2016_Nov_21_1114,,LL-ELAINE,3,67,43,ashtoosh,water,water,first_gen_imitation,1,1,837.843573187,1
LSN105,2016_Nov_21_1114,,LL-ELAINE,3,68,39,boonk,tear,glass,first_gen_imitation,0,0,889.342701528,1
LSN105,2016_Nov_21_1114,,LL-ELAINE,3,69,49,ashtoosh,zipper,water,first_gen_imitation,0,0,749.730326701,1
LSN105,2016_Nov_21_1114,,LL-ELAINE,3,70,49,boonk,zipper,glass,first_gen_imitation,0,0,534.735848196,1
LSN105,2016_Nov_21_1114,,LL-ELAINE,3,71,43,ashtoosh,water,water,first_gen_imitation,1,1,517.074724659,1
LSN105,2016_Nov_21_1114,,LL-ELAINE,3,72,43,ashtoosh,water,water,first_gen_imitation,1,1,390.937694814,1
LSN105,2016_Nov_21_1114,,LL-ELAINE,4,73,47,grrir,zipper,zipper,first_gen_imitation,1,1,636.46143768,1
LSN105,2016_Nov_21_1114,,LL-ELAINE,4,74,40,boonk,tear,glass,first_gen_imitation,0,0,639.238512609,1
LSN105,2016_Nov_21_1114,,LL-ELAINE,4,75,40,pcht,tear,tear,first_gen_imitation,1,1,805.936334655,1
LSN105,2016_Nov_21_1114,,LL-ELAINE,4,76,34,grrir,glass,zipper,first_gen_imitation,0,0,519.355664495,1
LSN105,2016_Nov_21_1114,,LL-ELAINE,4,77,40,ashtoosh,tear,water,first_gen_imitation,0,0,526.154953986,1
LSN105,2016_Nov_21_1114,,LL-ELAINE,4,78,34,grrir,glass,zipper,first_gen_imitation,0,0,839.908135124,1
LSN105,2016_Nov_21_1114,,LL-ELAINE,4,79,40,grrir,tear,zipper,first_gen_imitation,0,0,897.439303342,1
LSN105,2016_Nov_21_1114,,LL-ELAINE,4,80,47,ashtoosh,zipper,water,first_gen_imitation,0,0,461.768480949,1
LSN105,2016_Nov_21_1114,,LL-ELAINE,4,81,34,pcht,glass,tear,first_gen_imitation,0,0,1234.87092508,1
LSN105,2016_Nov_21_1114,,LL-ELAINE,4,82,40,pcht,tear,tear,first_gen_imitation,1,1,546.033320948,1
LSN105,2016_Nov_21_1114,,LL-ELAINE,4,83,40,pcht,tear,tear,first_gen_imitation,1,1,463.849687018,1
LSN105,2016_Nov_21_1114,,LL-ELAINE,4,84,42,grrir,water,zipper,first_gen_imitation,0,0,591.716147028,1
LSN105,2016_Nov_21_1114,,LL-ELAINE,4,85,47,ashtoosh,zipper,water,first_gen_imitation,0,0,624.998159241,1
LSN105,2016_Nov_21_1114,,LL-ELAINE,4,86,34,grrir,glass,zipper,first_gen_imitation,0,0,574.984555598,1
LSN105,2016_Nov_21_1114,,LL-ELAINE,4,87,42,pcht,water,tear,first_gen_imitation,0,0,1462.07320411,1
LSN105,2016_Nov_21_1114,,LL-ELAINE,4,88,42,grrir,water,zipper,first_gen_imitation,0,0,930.828225333,1
LSN105,2016_Nov_21_1114,,LL-ELAINE,4,89,34,grrir,glass,zipper,first_gen_imitation,0,0,508.772945963,1
LSN105,2016_Nov_21_1114,,LL-ELAINE,4,90,34,boonk,glass,glass,first_gen_imitation,1,1,420.525903348,1
LSN105,2016_Nov_21_1114,,LL-ELAINE,4,91,47,grrir,zipper,zipper,first_gen_imitation,1,1,395.566474181,1
LSN105,2016_Nov_21_1114,,LL-ELAINE,4,92,42,grrir,water,zipper,first_gen_imitation,0,0,669.832114596,1
LSN105,2016_Nov_21_1114,,LL-ELAINE,4,93,42,ashtoosh,water,water,first_gen_imitation,1,1,511.613078881,1
LSN105,2016_Nov_21_1114,,LL-ELAINE,4,94,42,boonk,water,glass,first_gen_imitation,0,0,501.427908428,1
LSN105,2016_Nov_21_1114,,LL-ELAINE,4,95,47,grrir,zipper,zipper,first_gen_imitation,1,1,398.911703844,1
LSN105,2016_Nov_21_1114,,LL-ELAINE,4,96,47,boonk,zipper,glass,first_gen_imitation,0,0,682.166669052,1
LSN106,2016_Nov_21_1111,,LL-Jerry,1,1,49,da da da,zipper,glass,last_gen_imitation,0,0,1389.1758665,1
LSN106,2016_Nov_21_1111,,LL-Jerry,1,2,42,cheea,water,tear,last_gen_imitation,0,1,1131.69586402,0
LSN106,2016_Nov_21_1111,,LL-Jerry,1,3,39,cheea,tear,tear,last_gen_imitation,1,1,950.998198008,1
LSN106,2016_Nov_21_1111,,LL-Jerry,1,4,42,da da da,water,glass,last_gen_imitation,0,0,882.834581193,1
LSN106,2016_Nov_21_1111,,LL-Jerry,1,5,49,da da da,zipper,glass,last_gen_imitation,0,0,1458.58014864,1
LSN106,2016_Nov_21_1111,,LL-Jerry,1,6,39,cheea,tear,tear,last_gen_imitation,1,0,1035.52028863,0
LSN106,2016_Nov_21_1111,,LL-Jerry,1,7,49,izzip,zipper,zipper,last_gen_imitation,1,1,934.379171114,1
LSN106,2016_Nov_21_1111,,LL-Jerry,1,8,39,izzip,tear,zipper,last_gen_imitation,0,0,717.560728779,1
LSN106,2016_Nov_21_1111,,LL-Jerry,1,9,42,cheea,water,tear,last_gen_imitation,0,1,365.07731746,0
LSN106,2016_Nov_21_1111,,LL-Jerry,1,10,39,cheea,tear,tear,last_gen_imitation,1,1,2040.03578587,1
LSN106,2016_Nov_21_1111,,LL-Jerry,1,11,42,everlutia,water,water,last_gen_imitation,1,1,688.281217357,1
LSN106,2016_Nov_21_1111,,LL-Jerry,1,12,36,everlutia,glass,water,last_gen_imitation,0,0,884.57586593,1
LSN106,2016_Nov_21_1111,,LL-Jerry,1,13,36,izzip,glass,zipper,last_gen_imitation,0,0,501.041249838,1
LSN106,2016_Nov_21_1111,,LL-Jerry,1,14,49,izzip,zipper,zipper,last_gen_imitation,1,1,390.021862229,1
LSN106,2016_Nov_21_1111,,LL-Jerry,1,15,36,da da da,glass,glass,last_gen_imitation,1,0,539.561413927,0
LSN106,2016_Nov_21_1111,,LL-Jerry,1,16,42,da da da,water,glass,last_gen_imitation,0,0,1452.26863166,1
LSN106,2016_Nov_21_1111,,LL-Jerry,1,17,36,da da da,glass,glass,last_gen_imitation,1,1,748.363544233,1
LSN106,2016_Nov_21_1111,,LL-Jerry,1,18,42,everlutia,water,water,last_gen_imitation,1,0,1070.90069866,0
LSN106,2016_Nov_21_1111,,LL-Jerry,1,19,39,cheea,tear,tear,last_gen_imitation,1,1,1091.21707478,1
LSN106,2016_Nov_21_1111,,LL-Jerry,1,20,49,da da da,zipper,glass,last_gen_imitation,0,1,1502.48517189,0
LSN106,2016_Nov_21_1111,,LL-Jerry,1,21,36,da da da,glass,glass,last_gen_imitation,1,1,415.975007461,1
LSN106,2016_Nov_21_1111,,LL-Jerry,1,22,39,cheea,tear,tear,last_gen_imitation,1,0,686.323552392,0
LSN106,2016_Nov_21_1111,,LL-Jerry,1,23,36,da da da,glass,glass,last_gen_imitation,1,0,480.339806527,0
LSN106,2016_Nov_21_1111,,LL-Jerry,1,24,49,everlutia,zipper,water,last_gen_imitation,0,0,539.305342594,1
LSN106,2016_Nov_21_1111,,LL-Jerry,2,25,47,da da da,zipper,glass,last_gen_imitation,0,1,820.498186862,0
LSN106,2016_Nov_21_1111,,LL-Jerry,2,26,37,da da da,glass,glass,last_gen_imitation,1,1,847.620617598,1
LSN106,2016_Nov_21_1111,,LL-Jerry,2,27,37,da da da,glass,glass,last_gen_imitation,1,1,497.503624996,1
LSN106,2016_Nov_21_1111,,LL-Jerry,2,28,44,izzip,water,zipper,last_gen_imitation,0,0,826.013962273,1
LSN106,2016_Nov_21_1111,,LL-Jerry,2,29,44,everlutia,water,water,last_gen_imitation,1,1,1455.67662036,1
LSN106,2016_Nov_21_1111,,LL-Jerry,2,30,47,izzip,zipper,zipper,last_gen_imitation,1,1,344.678038498,1
LSN106,2016_Nov_21_1111,,LL-Jerry,2,31,37,cheea,glass,tear,last_gen_imitation,0,0,521.021212218,1
LSN106,2016_Nov_21_1111,,LL-Jerry,2,32,40,da da da,tear,glass,last_gen_imitation,0,0,1167.35859262,1
LSN106,2016_Nov_21_1111,,LL-Jerry,2,33,37,da da da,glass,glass,last_gen_imitation,1,1,327.576637268,1
LSN106,2016_Nov_21_1111,,LL-Jerry,2,34,40,everlutia,tear,water,last_gen_imitation,0,0,1344.28144805,1
LSN106,2016_Nov_21_1111,,LL-Jerry,2,35,40,cheea,tear,tear,last_gen_imitation,1,1,371.038337005,1
LSN106,2016_Nov_21_1111,,LL-Jerry,2,36,47,everlutia,zipper,water,last_gen_imitation,0,0,526.575078489,1
LSN106,2016_Nov_21_1111,,LL-Jerry,2,37,44,everlutia,water,water,last_gen_imitation,1,0,747.229148634,0
LSN106,2016_Nov_21_1111,,LL-Jerry,2,38,40,izzip,tear,zipper,last_gen_imitation,0,0,1048.66538849,1
LSN106,2016_Nov_21_1111,,LL-Jerry,2,39,37,everlutia,glass,water,last_gen_imitation,0,0,724.941983819,1
LSN106,2016_Nov_21_1111,,LL-Jerry,2,40,44,everlutia,water,water,last_gen_imitation,1,1,431.153633166,1
LSN106,2016_Nov_21_1111,,LL-Jerry,2,41,44,everlutia,water,water,last_gen_imitation,1,1,376.059254864,1
LSN106,2016_Nov_21_1111,,LL-Jerry,2,42,40,da da da,tear,glass,last_gen_imitation,0,0,1039.28709752,1
LSN106,2016_Nov_21_1111,,LL-Jerry,2,43,37,da da da,glass,glass,last_gen_imitation,1,1,284.335158998,1
LSN106,2016_Nov_21_1111,,LL-Jerry,2,44,47,izzip,zipper,zipper,last_gen_imitation,1,1,369.24615805,1
LSN106,2016_Nov_21_1111,,LL-Jerry,2,45,44,everlutia,water,water,last_gen_imitation,1,1,932.199364295,1
LSN106,2016_Nov_21_1111,,LL-Jerry,2,46,40,izzip,tear,zipper,last_gen_imitation,0,0,773.220704636,1
LSN106,2016_Nov_21_1111,,LL-Jerry,2,47,47,everlutia,zipper,water,last_gen_imitation,0,0,701.76017005,1
LSN106,2016_Nov_21_1111,,LL-Jerry,2,48,47,da da da,zipper,glass,last_gen_imitation,0,0,649.680391187,1
LSN106,2016_Nov_21_1111,,LL-Jerry,3,49,35,everlutia,glass,water,last_gen_imitation,0,0,853.158799233,1
LSN106,2016_Nov_21_1111,,LL-Jerry,3,50,45,everlutia,water,water,last_gen_imitation,1,1,1013.09964713,1
LSN106,2016_Nov_21_1111,,LL-Jerry,3,51,46,izzip,zipper,zipper,last_gen_imitation,1,1,413.26033161,1
LSN106,2016_Nov_21_1111,,LL-Jerry,3,52,45,da da da,water,glass,last_gen_imitation,0,0,604.495971696,1
LSN106,2016_Nov_21_1111,,LL-Jerry,3,53,35,izzip,glass,zipper,last_gen_imitation,0,0,562.074241461,1
LSN106,2016_Nov_21_1111,,LL-Jerry,3,54,41,cheea,tear,tear,last_gen_imitation,1,1,554.678582586,1
LSN106,2016_Nov_21_1111,,LL-Jerry,3,55,35,da da da,glass,glass,last_gen_imitation,1,1,396.568964701,1
LSN106,2016_Nov_21_1111,,LL-Jerry,3,56,41,cheea,tear,tear,last_gen_imitation,1,1,334.19127902,1
LSN106,2016_Nov_21_1111,,LL-Jerry,3,57,46,everlutia,zipper,water,last_gen_imitation,0,0,549.437123351,1
LSN106,2016_Nov_21_1111,,LL-Jerry,3,58,45,da da da,water,glass,last_gen_imitation,0,0,595.970398048,1
LSN106,2016_Nov_21_1111,,LL-Jerry,3,59,46,izzip,zipper,zipper,last_gen_imitation,1,1,421.920342604,1
LSN106,2016_Nov_21_1111,,LL-Jerry,3,60,46,izzip,zipper,zipper,last_gen_imitation,1,1,415.249685524,1
LSN106,2016_Nov_21_1111,,LL-Jerry,3,61,46,cheea,zipper,tear,last_gen_imitation,0,0,499.497460201,1
LSN106,2016_Nov_21_1111,,LL-Jerry,3,62,35,da da da,glass,glass,last_gen_imitation,1,1,332.64108724,1
LSN106,2016_Nov_21_1111,,LL-Jerry,3,63,45,da da da,water,glass,last_gen_imitation,0,0,494.184300769,1
LSN106,2016_Nov_21_1111,,LL-Jerry,3,64,41,cheea,tear,tear,last_gen_imitation,1,1,391.557649709,1
LSN106,2016_Nov_21_1111,,LL-Jerry,3,65,45,everlutia,water,water,last_gen_imitation,1,1,428.09390137,1
LSN106,2016_Nov_21_1111,,LL-Jerry,3,66,35,cheea,glass,tear,last_gen_imitation,0,0,494.027137058,1
LSN106,2016_Nov_21_1111,,LL-Jerry,3,67,41,cheea,tear,tear,last_gen_imitation,1,1,384.966374608,1
LSN106,2016_Nov_21_1111,,LL-Jerry,3,68,41,da da da,tear,glass,last_gen_imitation,0,0,453.614926431,1
LSN106,2016_Nov_21_1111,,LL-Jerry,3,69,46,izzip,zipper,zipper,last_gen_imitation,1,1,730.940133799,1
LSN106,2016_Nov_21_1111,,LL-Jerry,3,70,41,cheea,tear,tear,last_gen_imitation,1,1,1167.33682645,1
LSN106,2016_Nov_21_1111,,LL-Jerry,3,71,45,everlutia,water,water,last_gen_imitation,1,1,343.877815641,1
LSN106,2016_Nov_21_1111,,LL-Jerry,3,72,35,everlutia,glass,water,last_gen_imitation,0,0,493.769465247,1
LSN106,2016_Nov_21_1111,,LL-Jerry,4,73,38,everlutia,tear,water,last_gen_imitation,0,0,427.970666904,1
LSN106,2016_Nov_21_1111,,LL-Jerry,4,74,48,izzip,zipper,zipper,last_gen_imitation,1,1,1015.55729099,1
LSN106,2016_Nov_21_1111,,LL-Jerry,4,75,38,cheea,tear,tear,last_gen_imitation,1,1,575.908493018,1
LSN106,2016_Nov_21_1111,,LL-Jerry,4,76,43,everlutia,water,water,last_gen_imitation,1,1,390.943078557,1
LSN106,2016_Nov_21_1111,,LL-Jerry,4,77,48,everlutia,zipper,water,last_gen_imitation,0,0,1178.32772643,1
LSN106,2016_Nov_21_1111,,LL-Jerry,4,78,43,da da da,water,glass,last_gen_imitation,0,0,563.584101852,1
LSN106,2016_Nov_21_1111,,LL-Jerry,4,79,34,da da da,glass,glass,last_gen_imitation,1,1,433.367689373,1
LSN106,2016_Nov_21_1111,,LL-Jerry,4,80,34,da da da,glass,glass,last_gen_imitation,1,1,607.047081925,1
LSN106,2016_Nov_21_1111,,LL-Jerry,4,81,38,everlutia,tear,water,last_gen_imitation,0,0,937.637038296,1
LSN106,2016_Nov_21_1111,,LL-Jerry,4,82,43,everlutia,water,water,last_gen_imitation,1,1,588.942201342,1
LSN106,2016_Nov_21_1111,,LL-Jerry,4,83,34,da da da,glass,glass,last_gen_imitation,1,1,619.876573561,1
LSN106,2016_Nov_21_1111,,LL-Jerry,4,84,48,da da da,zipper,glass,last_gen_imitation,0,0,717.61450381,1
LSN106,2016_Nov_21_1111,,LL-Jerry,4,85,38,cheea,tear,tear,last_gen_imitation,1,1,431.373854633,1
LSN106,2016_Nov_21_1111,,LL-Jerry,4,86,43,everlutia,water,water,last_gen_imitation,1,1,483.923524152,1
LSN106,2016_Nov_21_1111,,LL-Jerry,4,87,34,da da da,glass,glass,last_gen_imitation,1,1,462.90359227,1
LSN106,2016_Nov_21_1111,,LL-Jerry,4,88,43,izzip,water,zipper,last_gen_imitation,0,0,465.442859335,1
LSN106,2016_Nov_21_1111,,LL-Jerry,4,89,48,everlutia,zipper,water,last_gen_imitation,0,0,542.671079515,1
LSN106,2016_Nov_21_1111,,LL-Jerry,4,90,38,cheea,tear,tear,last_gen_imitation,1,1,725.974591449,1
LSN106,2016_Nov_21_1111,,LL-Jerry,4,91,34,da da da,glass,glass,last_gen_imitation,1,1,542.491829721,1
LSN106,2016_Nov_21_1111,,LL-Jerry,4,92,38,cheea,tear,tear,last_gen_imitation,1,1,1673.7936642,1
LSN106,2016_Nov_21_1111,,LL-Jerry,4,93,48,izzip,zipper,zipper,last_gen_imitation,1,1,476.5406691,1
LSN106,2016_Nov_21_1111,,LL-Jerry,4,94,48,izzip,zipper,zipper,last_gen_imitation,1,0,531.59471578,0
LSN106,2016_Nov_21_1111,,LL-Jerry,4,95,34,everlutia,glass,water,last_gen_imitation,0,0,708.804371068,1
LSN106,2016_Nov_21_1111,,LL-Jerry,4,96,43,everlutia,water,water,last_gen_imitation,1,1,564.595263219,1
LSN107,2016_Nov_21_1122,,LL-Kramer,1,1,44,crizzz,water,tear,sound_effect,0,0,3109.51167671,1
LSN107,2016_Nov_21_1122,,LL-Kramer,1,2,47,cliq,zipper,glass,sound_effect,0,1,2167.52247,0
LSN107,2016_Nov_21_1122,,LL-Kramer,1,3,39,cliq,tear,glass,sound_effect,0,0,1748.38324543,1
LSN107,2016_Nov_21_1122,,LL-Kramer,1,4,47,crizzz,zipper,tear,sound_effect,0,1,1148.85153156,0
LSN107,2016_Nov_21_1122,,LL-Kramer,1,5,44,crizzz,water,tear,sound_effect,0,0,1146.64933924,1
LSN107,2016_Nov_21_1122,,LL-Kramer,1,6,34,bloosh,glass,water,sound_effect,0,0,1380.23596723,1
LSN107,2016_Nov_21_1122,,LL-Kramer,1,7,44,bloosh,water,water,sound_effect,1,1,1005.51412208,1
LSN107,2016_Nov_21_1122,,LL-Kramer,1,8,34,crizzz,glass,tear,sound_effect,0,0,863.12896898,1
LSN107,2016_Nov_21_1122,,LL-Kramer,1,9,47,growwff,zipper,zipper,sound_effect,1,0,732.469847891,0
LSN107,2016_Nov_21_1122,,LL-Kramer,1,10,34,cliq,glass,glass,sound_effect,1,1,995.63402636,1
LSN107,2016_Nov_21_1122,,LL-Kramer,1,11,39,bloosh,tear,water,sound_effect,0,0,808.538294863,1
LSN107,2016_Nov_21_1122,,LL-Kramer,1,12,44,bloosh,water,water,sound_effect,1,1,431.129967794,1
LSN107,2016_Nov_21_1122,,LL-Kramer,1,13,34,cliq,glass,glass,sound_effect,1,1,645.158378873,1
LSN107,2016_Nov_21_1122,,LL-Kramer,1,14,39,cliq,tear,glass,sound_effect,0,0,1639.59848415,1
LSN107,2016_Nov_21_1122,,LL-Kramer,1,15,39,crizzz,tear,tear,sound_effect,1,1,1132.88884051,1
LSN107,2016_Nov_21_1122,,LL-Kramer,1,16,44,bloosh,water,water,sound_effect,1,1,497.798448429,1
LSN107,2016_Nov_21_1122,,LL-Kramer,1,17,47,crizzz,zipper,tear,sound_effect,0,1,422.493726481,0
LSN107,2016_Nov_21_1122,,LL-Kramer,1,18,34,crizzz,glass,tear,sound_effect,0,0,799.083914142,1
LSN107,2016_Nov_21_1122,,LL-Kramer,1,19,47,growwff,zipper,zipper,sound_effect,1,0,775.685944594,0
LSN107,2016_Nov_21_1122,,LL-Kramer,1,20,39,crizzz,tear,tear,sound_effect,1,1,1015.40189981,1
LSN107,2016_Nov_21_1122,,LL-Kramer,1,21,39,bloosh,tear,water,sound_effect,0,0,467.444689013,1
LSN107,2016_Nov_21_1122,,LL-Kramer,1,22,34,cliq,glass,glass,sound_effect,1,1,428.369865753,1
LSN107,2016_Nov_21_1122,,LL-Kramer,1,23,44,crizzz,water,tear,sound_effect,0,0,633.194522932,1
LSN107,2016_Nov_21_1122,,LL-Kramer,1,24,47,crizzz,zipper,tear,sound_effect,0,0,903.14388508,1
LSN107,2016_Nov_21_1122,,LL-Kramer,2,25,40,crizzz,tear,tear,sound_effect,1,1,655.916470103,1
LSN107,2016_Nov_21_1122,,LL-Kramer,2,26,48,bloosh,zipper,water,sound_effect,0,0,752.317103092,1
LSN107,2016_Nov_21_1122,,LL-Kramer,2,27,48,growwff,zipper,zipper,sound_effect,1,1,415.894512553,1
LSN107,2016_Nov_21_1122,,LL-Kramer,2,28,40,growwff,tear,zipper,sound_effect,0,0,605.475391727,1
LSN107,2016_Nov_21_1122,,LL-Kramer,2,29,35,cliq,glass,glass,sound_effect,1,1,522.893513553,1
LSN107,2016_Nov_21_1122,,LL-Kramer,2,30,40,growwff,tear,zipper,sound_effect,0,0,708.373771049,1
LSN107,2016_Nov_21_1122,,LL-Kramer,2,31,42,bloosh,water,water,sound_effect,1,1,700.572313741,1
LSN107,2016_Nov_21_1122,,LL-Kramer,2,32,48,bloosh,zipper,water,sound_effect,0,0,796.431680676,1
LSN107,2016_Nov_21_1122,,LL-Kramer,2,33,48,bloosh,zipper,water,sound_effect,0,0,563.332223333,1
LSN107,2016_Nov_21_1122,,LL-Kramer,2,34,35,growwff,glass,zipper,sound_effect,0,0,517.78846141,1
LSN107,2016_Nov_21_1122,,LL-Kramer,2,35,42,cliq,water,glass,sound_effect,0,0,505.329752807,1
LSN107,2016_Nov_21_1122,,LL-Kramer,2,36,42,bloosh,water,water,sound_effect,1,1,344.64239981,1
LSN107,2016_Nov_21_1122,,LL-Kramer,2,37,40,crizzz,tear,tear,sound_effect,1,1,790.569304954,1
LSN107,2016_Nov_21_1122,,LL-Kramer,2,38,42,bloosh,water,water,sound_effect,1,1,437.517284881,1
LSN107,2016_Nov_21_1122,,LL-Kramer,2,39,42,bloosh,water,water,sound_effect,1,1,459.678121842,1
LSN107,2016_Nov_21_1122,,LL-Kramer,2,40,35,cliq,glass,glass,sound_effect,1,1,466.109930538,1
LSN107,2016_Nov_21_1122,,LL-Kramer,2,41,35,cliq,glass,glass,sound_effect,1,1,504.578830674,1
LSN107,2016_Nov_21_1122,,LL-Kramer,2,42,48,growwff,zipper,zipper,sound_effect,1,1,732.496735174,1
LSN107,2016_Nov_21_1122,,LL-Kramer,2,43,48,crizzz,zipper,tear,sound_effect,0,0,563.320700545,1
LSN107,2016_Nov_21_1122,,LL-Kramer,2,44,40,growwff,tear,zipper,sound_effect,0,0,734.999487642,1
LSN107,2016_Nov_21_1122,,LL-Kramer,2,45,42,growwff,water,zipper,sound_effect,0,0,704.78816703,1
LSN107,2016_Nov_21_1122,,LL-Kramer,2,46,35,cliq,glass,glass,sound_effect,1,1,522.988899611,1
LSN107,2016_Nov_21_1122,,LL-Kramer,2,47,40,cliq,tear,glass,sound_effect,0,0,812.052519526,1
LSN107,2016_Nov_21_1122,,LL-Kramer,2,48,35,cliq,glass,glass,sound_effect,1,1,825.408109929,1
LSN107,2016_Nov_21_1122,,LL-Kramer,3,49,37,crizzz,glass,tear,sound_effect,0,0,783.991216682,1
LSN107,2016_Nov_21_1122,,LL-Kramer,3,50,41,growwff,tear,zipper,sound_effect,0,0,730.938236229,1
LSN107,2016_Nov_21_1122,,LL-Kramer,3,51,49,growwff,zipper,zipper,sound_effect,1,0,676.959246863,0
LSN107,2016_Nov_21_1122,,LL-Kramer,3,52,41,growwff,tear,zipper,sound_effect,0,0,707.699669525,1
LSN107,2016_Nov_21_1122,,LL-Kramer,3,53,49,growwff,zipper,zipper,sound_effect,1,1,492.340021301,1
LSN107,2016_Nov_21_1122,,LL-Kramer,3,54,45,bloosh,water,water,sound_effect,1,1,741.279256064,1
LSN107,2016_Nov_21_1122,,LL-Kramer,3,55,37,crizzz,glass,tear,sound_effect,0,0,598.671962973,1
LSN107,2016_Nov_21_1122,,LL-Kramer,3,56,41,crizzz,tear,tear,sound_effect,1,1,365.333401598,1
LSN107,2016_Nov_21_1122,,LL-Kramer,3,57,37,cliq,glass,glass,sound_effect,1,1,1626.86866196,1
LSN107,2016_Nov_21_1122,,LL-Kramer,3,58,45,growwff,water,zipper,sound_effect,0,0,569.029755425,1
LSN107,2016_Nov_21_1122,,LL-Kramer,3,59,45,growwff,water,zipper,sound_effect,0,0,462.86169719,1
LSN107,2016_Nov_21_1122,,LL-Kramer,3,60,41,crizzz,tear,tear,sound_effect,1,1,444.160350133,1
LSN107,2016_Nov_21_1122,,LL-Kramer,3,61,45,bloosh,water,water,sound_effect,1,1,358.509487472,1
LSN107,2016_Nov_21_1122,,LL-Kramer,3,62,41,cliq,tear,glass,sound_effect,0,0,540.833695792,1
LSN107,2016_Nov_21_1122,,LL-Kramer,3,63,41,cliq,tear,glass,sound_effect,0,0,536.880633328,1
LSN107,2016_Nov_21_1122,,LL-Kramer,3,64,37,cliq,glass,glass,sound_effect,1,1,389.291521627,1
LSN107,2016_Nov_21_1122,,LL-Kramer,3,65,49,cliq,zipper,glass,sound_effect,0,0,665.060047992,1
LSN107,2016_Nov_21_1122,,LL-Kramer,3,66,45,bloosh,water,water,sound_effect,1,1,326.723343227,1
LSN107,2016_Nov_21_1122,,LL-Kramer,3,67,37,cliq,glass,glass,sound_effect,1,1,453.921694309,1
LSN107,2016_Nov_21_1122,,LL-Kramer,3,68,49,growwff,zipper,zipper,sound_effect,1,0,582.767528016,0
LSN107,2016_Nov_21_1122,,LL-Kramer,3,69,45,bloosh,water,water,sound_effect,1,1,464.980666526,1
LSN107,2016_Nov_21_1122,,LL-Kramer,3,70,49,growwff,zipper,zipper,sound_effect,1,0,872.231255751,0
LSN107,2016_Nov_21_1122,,LL-Kramer,3,71,49,growwff,zipper,zipper,sound_effect,1,1,258.10937956,1
LSN107,2016_Nov_21_1122,,LL-Kramer,3,72,37,cliq,glass,glass,sound_effect,1,1,476.341480855,1
LSN107,2016_Nov_21_1122,,LL-Kramer,4,73,38,crizzz,tear,tear,sound_effect,1,1,404.301636387,1
LSN107,2016_Nov_21_1122,,LL-Kramer,4,74,38,growwff,tear,zipper,sound_effect,0,0,1039.98898901,1
LSN107,2016_Nov_21_1122,,LL-Kramer,4,75,38,crizzz,tear,tear,sound_effect,1,1,428.651221562,1
LSN107,2016_Nov_21_1122,,LL-Kramer,4,76,43,bloosh,water,water,sound_effect,1,1,778.198939748,1
LSN107,2016_Nov_21_1122,,LL-Kramer,4,77,36,crizzz,glass,tear,sound_effect,0,0,650.567192584,1
LSN107,2016_Nov_21_1122,,LL-Kramer,4,78,43,bloosh,water,water,sound_effect,1,1,388.414805755,1
LSN107,2016_Nov_21_1122,,LL-Kramer,4,79,46,crizzz,zipper,tear,sound_effect,0,0,1523.32178876,1
LSN107,2016_Nov_21_1122,,LL-Kramer,4,80,46,crizzz,zipper,tear,sound_effect,0,0,735.430643428,1
LSN107,2016_Nov_21_1122,,LL-Kramer,4,81,46,bloosh,zipper,water,sound_effect,0,0,827.912142966,1
LSN107,2016_Nov_21_1122,,LL-Kramer,4,82,46,crizzz,zipper,tear,sound_effect,0,0,509.596819524,1
LSN107,2016_Nov_21_1122,,LL-Kramer,4,83,43,cliq,water,glass,sound_effect,0,0,519.539972302,1
LSN107,2016_Nov_21_1122,,LL-Kramer,4,84,46,bloosh,zipper,water,sound_effect,0,0,636.751318816,1
LSN107,2016_Nov_21_1122,,LL-Kramer,4,85,36,growwff,glass,zipper,sound_effect,0,0,513.178902213,1
LSN107,2016_Nov_21_1122,,LL-Kramer,4,86,38,crizzz,tear,tear,sound_effect,1,1,513.90773803,1
LSN107,2016_Nov_21_1122,,LL-Kramer,4,87,38,crizzz,tear,tear,sound_effect,1,1,382.133437321,1
LSN107,2016_Nov_21_1122,,LL-Kramer,4,88,46,growwff,zipper,zipper,sound_effect,1,1,424.888609909,1
LSN107,2016_Nov_21_1122,,LL-Kramer,4,89,38,bloosh,tear,water,sound_effect,0,0,699.711602647,1
LSN107,2016_Nov_21_1122,,LL-Kramer,4,90,36,growwff,glass,zipper,sound_effect,0,0,477.301738691,1
LSN107,2016_Nov_21_1122,,LL-Kramer,4,91,43,bloosh,water,water,sound_effect,1,1,477.381760255,1
LSN107,2016_Nov_21_1122,,LL-Kramer,4,92,43,bloosh,water,water,sound_effect,1,1,336.535580456,1
LSN107,2016_Nov_21_1122,,LL-Kramer,4,93,36,cliq,glass,glass,sound_effect,1,1,376.823210157,1
LSN107,2016_Nov_21_1122,,LL-Kramer,4,94,36,cliq,glass,glass,sound_effect,1,1,398.875537794,1
LSN107,2016_Nov_21_1122,,LL-Kramer,4,95,43,bloosh,water,water,sound_effect,1,1,325.49005188,1
LSN107,2016_Nov_21_1122,,LL-Kramer,4,96,36,cliq,glass,glass,sound_effect,1,1,333.335680887,1
LSN108,2016_Nov_22_1444,,LL-Kramer,1,1,41,choo,tear,tear,first_gen_imitation,1,1,2203.24887335,1
LSN108,2016_Nov_22_1444,,LL-Kramer,1,2,43,fshfshfsh,water,water,first_gen_imitation,1,1,1282.27331489,1
LSN108,2016_Nov_22_1444,,LL-Kramer,1,3,43,choo,water,tear,first_gen_imitation,0,0,702.919184696,1
LSN108,2016_Nov_22_1444,,LL-Kramer,1,4,35,tititic,glass,glass,first_gen_imitation,1,1,1226.05980514,1
LSN108,2016_Nov_22_1444,,LL-Kramer,1,5,35,tititic,glass,glass,first_gen_imitation,1,1,521.36574313,1
LSN108,2016_Nov_22_1444,,LL-Kramer,1,6,47,arrgt,zipper,zipper,first_gen_imitation,1,0,975.280715618,0
LSN108,2016_Nov_22_1444,,LL-Kramer,1,7,35,choo,glass,tear,first_gen_imitation,0,0,865.000192076,1
LSN108,2016_Nov_22_1444,,LL-Kramer,1,8,47,choo,zipper,tear,first_gen_imitation,0,0,710.815707222,1
LSN108,2016_Nov_22_1444,,LL-Kramer,1,9,41,fshfshfsh,tear,water,first_gen_imitation,0,0,876.801123843,1
LSN108,2016_Nov_22_1444,,LL-Kramer,1,10,47,tititic,zipper,glass,first_gen_imitation,0,0,826.630838215,1
LSN108,2016_Nov_22_1444,,LL-Kramer,1,11,47,arrgt,zipper,zipper,first_gen_imitation,1,1,510.543313809,1
LSN108,2016_Nov_22_1444,,LL-Kramer,1,12,41,choo,tear,tear,first_gen_imitation,1,0,1190.97869517,0
LSN108,2016_Nov_22_1444,,LL-Kramer,1,13,43,fshfshfsh,water,water,first_gen_imitation,1,1,411.622324027,1
LSN108,2016_Nov_22_1444,,LL-Kramer,1,14,43,fshfshfsh,water,water,first_gen_imitation,1,1,921.471051406,1
LSN108,2016_Nov_22_1444,,LL-Kramer,1,15,43,fshfshfsh,water,water,first_gen_imitation,1,1,443.742637988,1
LSN108,2016_Nov_22_1444,,LL-Kramer,1,16,41,fshfshfsh,tear,water,first_gen_imitation,0,0,686.190848239,1
LSN108,2016_Nov_22_1444,,LL-Kramer,1,17,35,choo,glass,tear,first_gen_imitation,0,0,1027.85644773,1
LSN108,2016_Nov_22_1444,,LL-Kramer,1,18,41,tititic,tear,glass,first_gen_imitation,0,0,788.829637226,1
LSN108,2016_Nov_22_1444,,LL-Kramer,1,19,35,tititic,glass,glass,first_gen_imitation,1,1,1387.1309408,1
LSN108,2016_Nov_22_1444,,LL-Kramer,1,20,35,choo,glass,tear,first_gen_imitation,0,0,471.712716389,1
LSN108,2016_Nov_22_1444,,LL-Kramer,1,21,41,choo,tear,tear,first_gen_imitation,1,1,339.694509748,1
LSN108,2016_Nov_22_1444,,LL-Kramer,1,22,47,fshfshfsh,zipper,water,first_gen_imitation,0,0,841.137778014,1
LSN108,2016_Nov_22_1444,,LL-Kramer,1,23,47,tititic,zipper,glass,first_gen_imitation,0,0,551.832492463,1
LSN108,2016_Nov_22_1444,,LL-Kramer,1,24,43,arrgt,water,zipper,first_gen_imitation,0,0,752.302698791,1
LSN108,2016_Nov_22_1444,,LL-Kramer,2,25,39,tititic,tear,glass,first_gen_imitation,0,0,907.167366706,1
LSN108,2016_Nov_22_1444,,LL-Kramer,2,26,49,fshfshfsh,zipper,water,first_gen_imitation,0,0,757.630210835,1
LSN108,2016_Nov_22_1444,,LL-Kramer,2,27,34,tititic,glass,glass,first_gen_imitation,1,1,1667.76733613,1
LSN108,2016_Nov_22_1444,,LL-Kramer,2,28,34,choo,glass,tear,first_gen_imitation,0,0,450.584797189,1
LSN108,2016_Nov_22_1444,,LL-Kramer,2,29,39,choo,tear,tear,first_gen_imitation,1,1,423.523763195,1
LSN108,2016_Nov_22_1444,,LL-Kramer,2,30,39,choo,tear,tear,first_gen_imitation,1,1,968.532661907,1
LSN108,2016_Nov_22_1444,,LL-Kramer,2,31,45,fshfshfsh,water,water,first_gen_imitation,1,1,478.54015138,1
LSN108,2016_Nov_22_1444,,LL-Kramer,2,32,39,choo,tear,tear,first_gen_imitation,1,1,493.175125215,1
LSN108,2016_Nov_22_1444,,LL-Kramer,2,33,34,tititic,glass,glass,first_gen_imitation,1,1,600.245825946,1
LSN108,2016_Nov_22_1444,,LL-Kramer,2,34,34,tititic,glass,glass,first_gen_imitation,1,1,503.450527787,1
LSN108,2016_Nov_22_1444,,LL-Kramer,2,35,49,arrgt,zipper,zipper,first_gen_imitation,1,1,873.386126012,1
LSN108,2016_Nov_22_1444,,LL-Kramer,2,36,39,arrgt,tear,zipper,first_gen_imitation,0,0,946.950220503,1
LSN108,2016_Nov_22_1444,,LL-Kramer,2,37,34,tititic,glass,glass,first_gen_imitation,1,1,432.831225451,1
LSN108,2016_Nov_22_1444,,LL-Kramer,2,38,34,arrgt,glass,zipper,first_gen_imitation,0,0,1185.32181438,1
LSN108,2016_Nov_22_1444,,LL-Kramer,2,39,49,arrgt,zipper,zipper,first_gen_imitation,1,1,2150.79797432,1
LSN108,2016_Nov_22_1444,,LL-Kramer,2,40,45,choo,water,tear,first_gen_imitation,0,0,608.66600927,1
LSN108,2016_Nov_22_1444,,LL-Kramer,2,41,49,arrgt,zipper,zipper,first_gen_imitation,1,1,724.559561815,1
LSN108,2016_Nov_22_1444,,LL-Kramer,2,42,45,fshfshfsh,water,water,first_gen_imitation,1,1,619.974968955,1
LSN108,2016_Nov_22_1444,,LL-Kramer,2,43,49,tititic,zipper,glass,first_gen_imitation,0,0,1549.7698579,1
LSN108,2016_Nov_22_1444,,LL-Kramer,2,44,45,fshfshfsh,water,water,first_gen_imitation,1,1,577.511074953,1
LSN108,2016_Nov_22_1444,,LL-Kramer,2,45,49,arrgt,zipper,zipper,first_gen_imitation,1,1,1338.15041464,1
LSN108,2016_Nov_22_1444,,LL-Kramer,2,46,45,choo,water,tear,first_gen_imitation,0,0,1619.87478193,1
LSN108,2016_Nov_22_1444,,LL-Kramer,2,47,45,fshfshfsh,water,water,first_gen_imitation,1,1,436.81981694,1
LSN108,2016_Nov_22_1444,,LL-Kramer,2,48,39,choo,tear,tear,first_gen_imitation,1,1,381.61233766,1
LSN108,2016_Nov_22_1444,,LL-Kramer,3,49,40,choo,tear,tear,first_gen_imitation,1,1,551.605231129,1
LSN108,2016_Nov_22_1444,,LL-Kramer,3,50,46,arrgt,zipper,zipper,first_gen_imitation,1,1,1075.35881642,1
LSN108,2016_Nov_22_1444,,LL-Kramer,3,51,44,fshfshfsh,water,water,first_gen_imitation,1,1,426.417021081,1
LSN108,2016_Nov_22_1444,,LL-Kramer,3,52,37,choo,glass,tear,first_gen_imitation,0,0,600.707069971,1
LSN108,2016_Nov_22_1444,,LL-Kramer,3,53,44,fshfshfsh,water,water,first_gen_imitation,1,1,447.963932529,1
LSN108,2016_Nov_22_1444,,LL-Kramer,3,54,37,tititic,glass,glass,first_gen_imitation,1,1,762.670925818,1
LSN108,2016_Nov_22_1444,,LL-Kramer,3,55,37,tititic,glass,glass,first_gen_imitation,1,1,496.236428153,1
LSN108,2016_Nov_22_1444,,LL-Kramer,3,56,40,fshfshfsh,tear,water,first_gen_imitation,0,0,667.050023098,1
LSN108,2016_Nov_22_1444,,LL-Kramer,3,57,46,arrgt,zipper,zipper,first_gen_imitation,1,1,735.227068886,1
LSN108,2016_Nov_22_1444,,LL-Kramer,3,58,44,tititic,water,glass,first_gen_imitation,0,0,687.412936706,1
LSN108,2016_Nov_22_1444,,LL-Kramer,3,59,44,fshfshfsh,water,water,first_gen_imitation,1,1,659.177827183,1
LSN108,2016_Nov_22_1444,,LL-Kramer,3,60,46,arrgt,zipper,zipper,first_gen_imitation,1,1,947.272546589,1
LSN108,2016_Nov_22_1444,,LL-Kramer,3,61,40,fshfshfsh,tear,water,first_gen_imitation,0,0,1091.54236643,1
LSN108,2016_Nov_22_1444,,LL-Kramer,3,62,44,fshfshfsh,water,water,first_gen_imitation,1,1,927.653513383,1
LSN108,2016_Nov_22_1444,,LL-Kramer,3,63,40,choo,tear,tear,first_gen_imitation,1,1,494.160670321,1
LSN108,2016_Nov_22_1444,,LL-Kramer,3,64,40,choo,tear,tear,first_gen_imitation,1,1,1837.89466601,1
LSN108,2016_Nov_22_1444,,LL-Kramer,3,65,40,fshfshfsh,tear,water,first_gen_imitation,0,0,482.755044475,1
LSN108,2016_Nov_22_1444,,LL-Kramer,3,66,44,choo,water,tear,first_gen_imitation,0,0,1329.5743498,1
LSN108,2016_Nov_22_1444,,LL-Kramer,3,67,37,tititic,glass,glass,first_gen_imitation,1,1,509.95627651,1
LSN108,2016_Nov_22_1444,,LL-Kramer,3,68,46,tititic,zipper,glass,first_gen_imitation,0,0,565.910836682,1
LSN108,2016_Nov_22_1444,,LL-Kramer,3,69,46,arrgt,zipper,zipper,first_gen_imitation,1,1,1030.6306337,1
LSN108,2016_Nov_22_1444,,LL-Kramer,3,70,37,arrgt,glass,zipper,first_gen_imitation,0,0,516.724495683,1
LSN108,2016_Nov_22_1444,,LL-Kramer,3,71,37,tititic,glass,glass,first_gen_imitation,1,1,1137.60402799,1
LSN108,2016_Nov_22_1444,,LL-Kramer,3,72,46,arrgt,zipper,zipper,first_gen_imitation,1,1,1118.21449595,1
LSN108,2016_Nov_22_1444,,LL-Kramer,4,73,36,tititic,glass,glass,first_gen_imitation,1,1,957.758885343,1
LSN108,2016_Nov_22_1444,,LL-Kramer,4,74,38,fshfshfsh,tear,water,first_gen_imitation,0,0,1162.4500663,1
LSN108,2016_Nov_22_1444,,LL-Kramer,4,75,42,tititic,water,glass,first_gen_imitation,0,0,882.9685417,1
LSN108,2016_Nov_22_1444,,LL-Kramer,4,76,48,tititic,zipper,glass,first_gen_imitation,0,0,1672.20500903,1
LSN108,2016_Nov_22_1444,,LL-Kramer,4,77,48,arrgt,zipper,zipper,first_gen_imitation,1,1,731.091237627,1
LSN108,2016_Nov_22_1444,,LL-Kramer,4,78,38,choo,tear,tear,first_gen_imitation,1,1,1702.09240215,1
LSN108,2016_Nov_22_1444,,LL-Kramer,4,79,36,tititic,glass,glass,first_gen_imitation,1,1,816.188351717,1
LSN108,2016_Nov_22_1444,,LL-Kramer,4,80,48,tititic,zipper,glass,first_gen_imitation,0,0,538.625422399,1
LSN108,2016_Nov_22_1444,,LL-Kramer,4,81,42,tititic,water,glass,first_gen_imitation,0,0,2131.49582595,1
LSN108,2016_Nov_22_1444,,LL-Kramer,4,82,48,arrgt,zipper,zipper,first_gen_imitation,1,1,1291.82180203,1
LSN108,2016_Nov_22_1444,,LL-Kramer,4,83,42,fshfshfsh,water,water,first_gen_imitation,1,1,639.347856864,1
LSN108,2016_Nov_22_1444,,LL-Kramer,4,84,36,arrgt,glass,zipper,first_gen_imitation,0,0,773.931873031,1
LSN108,2016_Nov_22_1444,,LL-Kramer,4,85,38,choo,tear,tear,first_gen_imitation,1,1,460.725122597,1
LSN108,2016_Nov_22_1444,,LL-Kramer,4,86,38,tititic,tear,glass,first_gen_imitation,0,0,4790.40734144,1
LSN108,2016_Nov_22_1444,,LL-Kramer,4,87,42,arrgt,water,zipper,first_gen_imitation,0,0,685.456250329,1
LSN108,2016_Nov_22_1444,,LL-Kramer,4,88,38,tititic,tear,glass,first_gen_imitation,0,0,891.211077571,1
LSN108,2016_Nov_22_1444,,LL-Kramer,4,89,42,fshfshfsh,water,water,first_gen_imitation,1,1,1116.28341675,1
LSN108,2016_Nov_22_1444,,LL-Kramer,4,90,36,arrgt,glass,zipper,first_gen_imitation,0,0,1167.21486766,1
LSN108,2016_Nov_22_1444,,LL-Kramer,4,91,48,tititic,zipper,glass,first_gen_imitation,0,0,1064.81454195,1
LSN108,2016_Nov_22_1444,,LL-Kramer,4,92,38,choo,tear,tear,first_gen_imitation,1,1,1156.11620387,1
LSN108,2016_Nov_22_1444,,LL-Kramer,4,93,42,arrgt,water,zipper,first_gen_imitation,0,0,671.682628337,1
LSN108,2016_Nov_22_1444,,LL-Kramer,4,94,48,choo,zipper,tear,first_gen_imitation,0,0,1237.39181086,1
LSN108,2016_Nov_22_1444,,LL-Kramer,4,95,36,choo,glass,tear,first_gen_imitation,0,0,1905.19755753,1
LSN108,2016_Nov_22_1444,,LL-Kramer,4,96,36,tititic,glass,glass,first_gen_imitation,1,1,967.534633353,1
LSN109,2016_Nov_22_1442,,LL-George,1,1,36,da da da,glass,glass,last_gen_imitation,1,1,7381.15653489,1
LSN109,2016_Nov_22_1442,,LL-George,1,2,36,da da da,glass,glass,last_gen_imitation,1,1,922.053928021,1
LSN109,2016_Nov_22_1442,,LL-George,1,3,48,izit,zipper,zipper,last_gen_imitation,1,1,1724.45105249,1
LSN109,2016_Nov_22_1442,,LL-George,1,4,39,cheea,tear,tear,last_gen_imitation,1,1,1625.6267284,1
LSN109,2016_Nov_22_1442,,LL-George,1,5,42,eeverlusha,water,water,last_gen_imitation,1,1,2087.66964567,1
LSN109,2016_Nov_22_1442,,LL-George,1,6,36,eeverlusha,glass,water,last_gen_imitation,0,1,2721.48257447,0
LSN109,2016_Nov_22_1442,,LL-George,1,7,39,eeverlusha,tear,water,last_gen_imitation,0,1,671.093669953,0
LSN109,2016_Nov_22_1442,,LL-George,1,8,48,izit,zipper,zipper,last_gen_imitation,1,1,780.262214364,1
LSN109,2016_Nov_22_1442,,LL-George,1,9,48,eeverlusha,zipper,water,last_gen_imitation,0,0,1055.65143912,1
LSN109,2016_Nov_22_1442,,LL-George,1,10,48,izit,zipper,zipper,last_gen_imitation,1,1,1371.61445012,1
LSN109,2016_Nov_22_1442,,LL-George,1,11,48,eeverlusha,zipper,water,last_gen_imitation,0,0,382.6110058,1
LSN109,2016_Nov_22_1442,,LL-George,1,12,39,izit,tear,zipper,last_gen_imitation,0,0,737.462549936,1
LSN109,2016_Nov_22_1442,,LL-George,1,13,42,izit,water,zipper,last_gen_imitation,0,0,906.283609103,1
LSN109,2016_Nov_22_1442,,LL-George,1,14,36,izit,glass,zipper,last_gen_imitation,0,0,610.961346421,1
LSN109,2016_Nov_22_1442,,LL-George,1,15,48,izit,zipper,zipper,last_gen_imitation,1,0,2155.334234,0
LSN109,2016_Nov_22_1442,,LL-George,1,16,39,cheea,tear,tear,last_gen_imitation,1,1,2820.08251827,1
LSN109,2016_Nov_22_1442,,LL-George,1,17,42,cheea,water,tear,last_gen_imitation,0,0,1047.57502815,1
LSN109,2016_Nov_22_1442,,LL-George,1,18,39,izit,tear,zipper,last_gen_imitation,0,0,1308.73226724,1
LSN109,2016_Nov_22_1442,,LL-George,1,19,42,eeverlusha,water,water,last_gen_imitation,1,1,605.16522848,1
LSN109,2016_Nov_22_1442,,LL-George,1,20,39,cheea,tear,tear,last_gen_imitation,1,1,1519.30086804,1
LSN109,2016_Nov_22_1442,,LL-George,1,21,36,da da da,glass,glass,last_gen_imitation,1,1,903.539831517,1
LSN109,2016_Nov_22_1442,,LL-George,1,22,42,cheea,water,tear,last_gen_imitation,0,0,772.854783339,1
LSN109,2016_Nov_22_1442,,LL-George,1,23,36,da da da,glass,glass,last_gen_imitation,1,1,336.891516577,1
LSN109,2016_Nov_22_1442,,LL-George,1,24,42,cheea,water,tear,last_gen_imitation,0,0,501.42342248,1
LSN109,2016_Nov_22_1442,,LL-George,2,25,47,eeverlusha,zipper,water,last_gen_imitation,0,0,1368.53746278,1
LSN109,2016_Nov_22_1442,,LL-George,2,26,37,da da da,glass,glass,last_gen_imitation,1,1,472.178441472,1
LSN109,2016_Nov_22_1442,,LL-George,2,27,40,eeverlusha,tear,water,last_gen_imitation,0,0,547.688658815,1
LSN109,2016_Nov_22_1442,,LL-George,2,28,40,cheea,tear,tear,last_gen_imitation,1,1,646.107113687,1
LSN109,2016_Nov_22_1442,,LL-George,2,29,37,da da da,glass,glass,last_gen_imitation,1,1,288.241319126,1
LSN109,2016_Nov_22_1442,,LL-George,2,30,37,izit,glass,zipper,last_gen_imitation,0,0,668.085821439,1
LSN109,2016_Nov_22_1442,,LL-George,2,31,37,da da da,glass,glass,last_gen_imitation,1,1,466.623028275,1
LSN109,2016_Nov_22_1442,,LL-George,2,32,37,eeverlusha,glass,water,last_gen_imitation,0,0,639.356498839,1
LSN109,2016_Nov_22_1442,,LL-George,2,33,43,eeverlusha,water,water,last_gen_imitation,1,1,745.178864105,1
LSN109,2016_Nov_22_1442,,LL-George,2,34,47,izit,zipper,zipper,last_gen_imitation,1,1,371.823786292,1
LSN109,2016_Nov_22_1442,,LL-George,2,35,43,eeverlusha,water,water,last_gen_imitation,1,1,419.768833788,1
LSN109,2016_Nov_22_1442,,LL-George,2,36,47,izit,zipper,zipper,last_gen_imitation,1,1,307.416073512,1
LSN109,2016_Nov_22_1442,,LL-George,2,37,43,eeverlusha,water,water,last_gen_imitation,1,1,1101.33699956,1
LSN109,2016_Nov_22_1442,,LL-George,2,38,40,eeverlusha,tear,water,last_gen_imitation,0,0,567.945303628,1
LSN109,2016_Nov_22_1442,,LL-George,2,39,47,izit,zipper,zipper,last_gen_imitation,1,1,302.668877412,1
LSN109,2016_Nov_22_1442,,LL-George,2,40,43,cheea,water,tear,last_gen_imitation,0,0,523.776311195,1
LSN109,2016_Nov_22_1442,,LL-George,2,41,37,da da da,glass,glass,last_gen_imitation,1,1,320.28737315,1
LSN109,2016_Nov_22_1442,,LL-George,2,42,47,cheea,zipper,tear,last_gen_imitation,0,0,1294.95736444,1
LSN109,2016_Nov_22_1442,,LL-George,2,43,43,izit,water,zipper,last_gen_imitation,0,0,497.825015336,1
LSN109,2016_Nov_22_1442,,LL-George,2,44,40,cheea,tear,tear,last_gen_imitation,1,1,726.522649173,1
LSN109,2016_Nov_22_1442,,LL-George,2,45,47,izit,zipper,zipper,last_gen_imitation,1,1,289.727478754,1
LSN109,2016_Nov_22_1442,,LL-George,2,46,40,izit,tear,zipper,last_gen_imitation,0,0,420.642668847,1
LSN109,2016_Nov_22_1442,,LL-George,2,47,43,cheea,water,tear,last_gen_imitation,0,0,521.953741089,1
LSN109,2016_Nov_22_1442,,LL-George,2,48,40,da da da,tear,glass,last_gen_imitation,0,0,833.293749485,1
LSN109,2016_Nov_22_1442,,LL-George,3,49,46,izit,zipper,zipper,last_gen_imitation,1,1,366.734098177,1
LSN109,2016_Nov_22_1442,,LL-George,3,50,38,eeverlusha,tear,water,last_gen_imitation,0,0,707.429837203,1
LSN109,2016_Nov_22_1442,,LL-George,3,51,38,cheea,tear,tear,last_gen_imitation,1,1,532.975583803,1
LSN109,2016_Nov_22_1442,,LL-George,3,52,44,da da da,water,glass,last_gen_imitation,0,0,436.966736568,1
LSN109,2016_Nov_22_1442,,LL-George,3,53,34,da da da,glass,glass,last_gen_imitation,1,1,295.888494933,1
LSN109,2016_Nov_22_1442,,LL-George,3,54,38,izit,tear,zipper,last_gen_imitation,0,0,487.583222333,1
LSN109,2016_Nov_22_1442,,LL-George,3,55,34,da da da,glass,glass,last_gen_imitation,1,1,296.199298464,1
LSN109,2016_Nov_22_1442,,LL-George,3,56,44,eeverlusha,water,water,last_gen_imitation,1,1,631.031381199,1
LSN109,2016_Nov_22_1442,,LL-George,3,57,46,da da da,zipper,glass,last_gen_imitation,0,0,658.445470035,1
LSN109,2016_Nov_22_1442,,LL-George,3,58,44,eeverlusha,water,water,last_gen_imitation,1,1,311.48692756,1
LSN109,2016_Nov_22_1442,,LL-George,3,59,46,izit,zipper,zipper,last_gen_imitation,1,1,308.990256628,1
LSN109,2016_Nov_22_1442,,LL-George,3,60,34,eeverlusha,glass,water,last_gen_imitation,0,0,482.182410546,1
LSN109,2016_Nov_22_1442,,LL-George,3,61,44,izit,water,zipper,last_gen_imitation,0,0,378.492138581,1
LSN109,2016_Nov_22_1442,,LL-George,3,62,44,eeverlusha,water,water,last_gen_imitation,1,1,369.785478339,1
LSN109,2016_Nov_22_1442,,LL-George,3,63,38,cheea,tear,tear,last_gen_imitation,1,1,795.911220834,1
LSN109,2016_Nov_22_1442,,LL-George,3,64,46,da da da,zipper,glass,last_gen_imitation,0,0,520.839841571,1
LSN109,2016_Nov_22_1442,,LL-George,3,65,46,izit,zipper,zipper,last_gen_imitation,1,1,323.963241186,1
LSN109,2016_Nov_22_1442,,LL-George,3,66,38,cheea,tear,tear,last_gen_imitation,1,1,431.684356648,1
LSN109,2016_Nov_22_1442,,LL-George,3,67,38,da da da,tear,glass,last_gen_imitation,0,0,394.125781022,1
LSN109,2016_Nov_22_1442,,LL-George,3,68,46,cheea,zipper,tear,last_gen_imitation,0,0,684.302980546,1
LSN109,2016_Nov_22_1442,,LL-George,3,69,34,da da da,glass,glass,last_gen_imitation,1,1,277.19867113,1
LSN109,2016_Nov_22_1442,,LL-George,3,70,34,da da da,glass,glass,last_gen_imitation,1,1,520.868649473,1
LSN109,2016_Nov_22_1442,,LL-George,3,71,34,eeverlusha,glass,water,last_gen_imitation,0,0,365.673653083,1
LSN109,2016_Nov_22_1442,,LL-George,3,72,44,cheea,water,tear,last_gen_imitation,0,1,326.820009388,0
LSN109,2016_Nov_22_1442,,LL-George,4,73,45,eeverlusha,water,water,last_gen_imitation,1,1,605.024070479,1
LSN109,2016_Nov_22_1442,,LL-George,4,74,45,eeverlusha,water,water,last_gen_imitation,1,1,553.643859457,1
LSN109,2016_Nov_22_1442,,LL-George,4,75,35,cheea,glass,tear,last_gen_imitation,0,0,519.52844928,1
LSN109,2016_Nov_22_1442,,LL-George,4,76,41,eeverlusha,tear,water,last_gen_imitation,0,0,956.511510303,1
LSN109,2016_Nov_22_1442,,LL-George,4,77,41,eeverlusha,tear,water,last_gen_imitation,0,0,983.533173567,1
LSN109,2016_Nov_22_1442,,LL-George,4,78,35,da da da,glass,glass,last_gen_imitation,1,1,382.429837016,1
LSN109,2016_Nov_22_1442,,LL-George,4,79,49,da da da,zipper,glass,last_gen_imitation,0,0,609.31578395,1
LSN109,2016_Nov_22_1442,,LL-George,4,80,45,eeverlusha,water,water,last_gen_imitation,1,1,643.087101867,1
LSN109,2016_Nov_22_1442,,LL-George,4,81,35,izit,glass,zipper,last_gen_imitation,0,0,476.321955444,1
LSN109,2016_Nov_22_1442,,LL-George,4,82,49,da da da,zipper,glass,last_gen_imitation,0,0,584.917225875,1
LSN109,2016_Nov_22_1442,,LL-George,4,83,49,eeverlusha,zipper,water,last_gen_imitation,0,0,505.695610773,1
LSN109,2016_Nov_22_1442,,LL-George,4,84,35,izit,glass,zipper,last_gen_imitation,0,0,469.458990498,1
LSN109,2016_Nov_22_1442,,LL-George,4,85,45,eeverlusha,water,water,last_gen_imitation,1,1,485.004289076,1
LSN109,2016_Nov_22_1442,,LL-George,4,86,49,izit,zipper,zipper,last_gen_imitation,1,1,665.162155638,1
LSN109,2016_Nov_22_1442,,LL-George,4,87,49,eeverlusha,zipper,water,last_gen_imitation,0,0,440.861863783,1
LSN109,2016_Nov_22_1442,,LL-George,4,88,45,cheea,water,tear,last_gen_imitation,0,0,443.735916167,1
LSN109,2016_Nov_22_1442,,LL-George,4,89,49,izit,zipper,zipper,last_gen_imitation,1,1,542.987875175,1
LSN109,2016_Nov_22_1442,,LL-George,4,90,41,cheea,tear,tear,last_gen_imitation,1,1,394.895587815,1
LSN109,2016_Nov_22_1442,,LL-George,4,91,35,cheea,glass,tear,last_gen_imitation,0,0,519.53741163,1
LSN109,2016_Nov_22_1442,,LL-George,4,92,45,eeverlusha,water,water,last_gen_imitation,1,1,803.874001373,1
LSN109,2016_Nov_22_1442,,LL-George,4,93,41,eeverlusha,tear,water,last_gen_imitation,0,0,752.242202638,1
LSN109,2016_Nov_22_1442,,LL-George,4,94,41,cheea,tear,tear,last_gen_imitation,1,1,1113.96503379,1
LSN109,2016_Nov_22_1442,,LL-George,4,95,41,da da da,tear,glass,last_gen_imitation,0,0,497.698261403,1
LSN109,2016_Nov_22_1442,,LL-George,4,96,35,eeverlusha,glass,water,last_gen_imitation,0,0,766.460104613,1
LSN111,2016_Nov_22_1450,,LL-Jerry,1,1,39,scheeept,tear,tear,first_gen_imitation,1,1,1847.08158765,1
LSN111,2016_Nov_22_1450,,LL-Jerry,1,2,37,scheeept,glass,tear,first_gen_imitation,0,0,1379.17596265,1
LSN111,2016_Nov_22_1450,,LL-Jerry,1,3,39,zoop,tear,zipper,first_gen_imitation,0,0,813.033708604,1
LSN111,2016_Nov_22_1450,,LL-Jerry,1,4,48,scheeept,zipper,tear,first_gen_imitation,0,0,710.066162515,1
LSN111,2016_Nov_22_1450,,LL-Jerry,1,5,39,scheeept,tear,tear,first_gen_imitation,1,1,550.081462832,1
LSN111,2016_Nov_22_1450,,LL-Jerry,1,6,37,zoop,glass,zipper,first_gen_imitation,0,1,1379.63369,0
LSN111,2016_Nov_22_1450,,LL-Jerry,1,7,44,zoop,water,zipper,first_gen_imitation,0,1,1878.40870908,0
LSN111,2016_Nov_22_1450,,LL-Jerry,1,8,44,zoop,water,zipper,first_gen_imitation,0,0,927.98443092,1
LSN111,2016_Nov_22_1450,,LL-Jerry,1,9,48,fshfshfsh,zipper,water,first_gen_imitation,0,1,1431.9721011,0
LSN111,2016_Nov_22_1450,,LL-Jerry,1,10,44,fshfshfsh,water,water,first_gen_imitation,1,1,563.54729156,1
LSN111,2016_Nov_22_1450,,LL-Jerry,1,11,48,dirrng,zipper,glass,first_gen_imitation,0,0,1689.32214729,1
LSN111,2016_Nov_22_1450,,LL-Jerry,1,12,37,dirrng,glass,glass,first_gen_imitation,1,1,1150.30264412,1
LSN111,2016_Nov_22_1450,,LL-Jerry,1,13,37,dirrng,glass,glass,first_gen_imitation,1,1,563.433659961,1
LSN111,2016_Nov_22_1450,,LL-Jerry,1,14,48,zoop,zipper,zipper,first_gen_imitation,1,1,1474.42039871,1
LSN111,2016_Nov_22_1450,,LL-Jerry,1,15,37,fshfshfsh,glass,water,first_gen_imitation,0,0,1269.76662292,1
LSN111,2016_Nov_22_1450,,LL-Jerry,1,16,44,fshfshfsh,water,water,first_gen_imitation,1,1,850.163085386,1
LSN111,2016_Nov_22_1450,,LL-Jerry,1,17,39,fshfshfsh,tear,water,first_gen_imitation,0,0,796.213665744,1
LSN111,2016_Nov_22_1450,,LL-Jerry,1,18,39,dirrng,tear,glass,first_gen_imitation,0,0,822.108875262,1
LSN111,2016_Nov_22_1450,,LL-Jerry,1,19,44,scheeept,water,tear,first_gen_imitation,0,0,982.79713071,1
LSN111,2016_Nov_22_1450,,LL-Jerry,1,20,39,scheeept,tear,tear,first_gen_imitation,1,1,873.819271335,1
LSN111,2016_Nov_22_1450,,LL-Jerry,1,21,48,zoop,zipper,zipper,first_gen_imitation,1,1,1142.83880615,1
LSN111,2016_Nov_22_1450,,LL-Jerry,1,22,44,fshfshfsh,water,water,first_gen_imitation,1,1,507.322678575,1
LSN111,2016_Nov_22_1450,,LL-Jerry,1,23,48,dirrng,zipper,glass,first_gen_imitation,0,0,1161.93980398,1
LSN111,2016_Nov_22_1450,,LL-Jerry,1,24,37,dirrng,glass,glass,first_gen_imitation,1,1,1222.0944711,1
LSN111,2016_Nov_22_1450,,LL-Jerry,2,25,43,fshfshfsh,water,water,first_gen_imitation,1,0,1593.42472954,0
LSN111,2016_Nov_22_1450,,LL-Jerry,2,26,43,fshfshfsh,water,water,first_gen_imitation,1,1,556.865431368,1
LSN111,2016_Nov_22_1450,,LL-Jerry,2,27,41,dirrng,tear,glass,first_gen_imitation,0,0,650.841994211,1
LSN111,2016_Nov_22_1450,,LL-Jerry,2,28,41,zoop,tear,zipper,first_gen_imitation,0,0,629.257105291,1
LSN111,2016_Nov_22_1450,,LL-Jerry,2,29,35,scheeept,glass,tear,first_gen_imitation,0,0,877.789016347,1
LSN111,2016_Nov_22_1450,,LL-Jerry,2,30,43,zoop,water,zipper,first_gen_imitation,0,0,481.425228762,1
LSN111,2016_Nov_22_1450,,LL-Jerry,2,31,49,zoop,zipper,zipper,first_gen_imitation,1,0,1116.68432504,0
LSN111,2016_Nov_22_1450,,LL-Jerry,2,32,49,zoop,zipper,zipper,first_gen_imitation,1,1,395.525154192,1
LSN111,2016_Nov_22_1450,,LL-Jerry,2,33,41,fshfshfsh,tear,water,first_gen_imitation,0,0,589.569576085,1
LSN111,2016_Nov_22_1450,,LL-Jerry,2,34,35,dirrng,glass,glass,first_gen_imitation,1,1,788.008181611,1
LSN111,2016_Nov_22_1450,,LL-Jerry,2,35,35,dirrng,glass,glass,first_gen_imitation,1,1,468.876775354,1
LSN111,2016_Nov_22_1450,,LL-Jerry,2,36,41,zoop,tear,zipper,first_gen_imitation,0,0,550.335293403,1
LSN111,2016_Nov_22_1450,,LL-Jerry,2,37,41,scheeept,tear,tear,first_gen_imitation,1,1,479.146514321,1
LSN111,2016_Nov_22_1450,,LL-Jerry,2,38,35,fshfshfsh,glass,water,first_gen_imitation,0,0,615.299299359,1
LSN111,2016_Nov_22_1450,,LL-Jerry,2,39,49,zoop,zipper,zipper,first_gen_imitation,1,1,523.238149472,1
LSN111,2016_Nov_22_1450,,LL-Jerry,2,40,35,dirrng,glass,glass,first_gen_imitation,1,1,433.940329123,1
LSN111,2016_Nov_22_1450,,LL-Jerry,2,41,41,fshfshfsh,tear,water,first_gen_imitation,0,0,1325.04665316,1
LSN111,2016_Nov_22_1450,,LL-Jerry,2,42,43,fshfshfsh,water,water,first_gen_imitation,1,1,450.905692298,1
LSN111,2016_Nov_22_1450,,LL-Jerry,2,43,35,dirrng,glass,glass,first_gen_imitation,1,1,1001.17504713,1
LSN111,2016_Nov_22_1450,,LL-Jerry,2,44,43,dirrng,water,glass,first_gen_imitation,0,0,775.876484113,1
LSN111,2016_Nov_22_1450,,LL-Jerry,2,45,49,scheeept,zipper,tear,first_gen_imitation,0,0,2295.46593758,1
LSN111,2016_Nov_22_1450,,LL-Jerry,2,46,49,zoop,zipper,zipper,first_gen_imitation,1,1,440.19166939,1
LSN111,2016_Nov_22_1450,,LL-Jerry,2,47,49,scheeept,zipper,tear,first_gen_imitation,0,0,568.969601067,1
LSN111,2016_Nov_22_1450,,LL-Jerry,2,48,43,dirrng,water,glass,first_gen_imitation,0,0,560.683774296,1
LSN111,2016_Nov_22_1450,,LL-Jerry,3,49,36,dirrng,glass,glass,first_gen_imitation,1,1,718.618943589,1
LSN111,2016_Nov_22_1450,,LL-Jerry,3,50,47,zoop,zipper,zipper,first_gen_imitation,1,1,665.840089787,1
LSN111,2016_Nov_22_1450,,LL-Jerry,3,51,47,zoop,zipper,zipper,first_gen_imitation,1,1,647.176973987,1
LSN111,2016_Nov_22_1450,,LL-Jerry,3,52,47,zoop,zipper,zipper,first_gen_imitation,1,1,372.558440315,1
LSN111,2016_Nov_22_1450,,LL-Jerry,3,53,45,dirrng,water,glass,first_gen_imitation,0,0,786.236808402,1
LSN111,2016_Nov_22_1450,,LL-Jerry,3,54,40,scheeept,tear,tear,first_gen_imitation,1,1,947.407438187,1
LSN111,2016_Nov_22_1450,,LL-Jerry,3,55,36,dirrng,glass,glass,first_gen_imitation,1,1,386.907074833,1
LSN111,2016_Nov_22_1450,,LL-Jerry,3,56,36,scheeept,glass,tear,first_gen_imitation,0,0,1099.15688541,1
LSN111,2016_Nov_22_1450,,LL-Jerry,3,57,40,zoop,tear,zipper,first_gen_imitation,0,0,619.407322956,1
LSN111,2016_Nov_22_1450,,LL-Jerry,3,58,45,fshfshfsh,water,water,first_gen_imitation,1,1,394.696123432,1
LSN111,2016_Nov_22_1450,,LL-Jerry,3,59,45,fshfshfsh,water,water,first_gen_imitation,1,1,354.57711434,1
LSN111,2016_Nov_22_1450,,LL-Jerry,3,60,47,zoop,zipper,zipper,first_gen_imitation,1,1,1044.21518953,1
LSN111,2016_Nov_22_1450,,LL-Jerry,3,61,47,zoop,zipper,zipper,first_gen_imitation,1,1,410.148105118,1
LSN111,2016_Nov_22_1450,,LL-Jerry,3,62,40,scheeept,tear,tear,first_gen_imitation,1,1,348.657386145,1
LSN111,2016_Nov_22_1450,,LL-Jerry,3,63,45,fshfshfsh,water,water,first_gen_imitation,1,1,360.535893356,1
LSN111,2016_Nov_22_1450,,LL-Jerry,3,64,47,scheeept,zipper,tear,first_gen_imitation,0,0,1005.82242082,1
LSN111,2016_Nov_22_1450,,LL-Jerry,3,65,45,zoop,water,zipper,first_gen_imitation,0,0,672.357424395,1
LSN111,2016_Nov_22_1450,,LL-Jerry,3,66,40,fshfshfsh,tear,water,first_gen_imitation,0,0,713.016423862,1
LSN111,2016_Nov_22_1450,,LL-Jerry,3,67,36,scheeept,glass,tear,first_gen_imitation,0,0,697.40695809,1
LSN111,2016_Nov_22_1450,,LL-Jerry,3,68,40,scheeept,tear,tear,first_gen_imitation,1,1,1277.96474542,1
LSN111,2016_Nov_22_1450,,LL-Jerry,3,69,45,fshfshfsh,water,water,first_gen_imitation,1,1,545.716087334,1
LSN111,2016_Nov_22_1450,,LL-Jerry,3,70,36,scheeept,glass,tear,first_gen_imitation,0,0,564.574457472,1
LSN111,2016_Nov_22_1450,,LL-Jerry,3,71,36,scheeept,glass,tear,first_gen_imitation,0,0,538.16166427,1
LSN111,2016_Nov_22_1450,,LL-Jerry,3,72,40,scheeept,tear,tear,first_gen_imitation,1,1,581.024157116,1
LSN111,2016_Nov_22_1450,,LL-Jerry,4,73,38,scheeept,tear,tear,first_gen_imitation,1,1,464.33375054,1
LSN111,2016_Nov_22_1450,,LL-Jerry,4,74,38,fshfshfsh,tear,water,first_gen_imitation,0,0,639.010220533,1
LSN111,2016_Nov_22_1450,,LL-Jerry,4,75,42,fshfshfsh,water,water,first_gen_imitation,1,1,512.963928981,1
LSN111,2016_Nov_22_1450,,LL-Jerry,4,76,34,dirrng,glass,glass,first_gen_imitation,1,1,522.637342103,1
LSN111,2016_Nov_22_1450,,LL-Jerry,4,77,46,dirrng,zipper,glass,first_gen_imitation,0,0,939.651038963,1
LSN111,2016_Nov_22_1450,,LL-Jerry,4,78,38,scheeept,tear,tear,first_gen_imitation,1,1,539.047990926,1
LSN111,2016_Nov_22_1450,,LL-Jerry,4,79,38,scheeept,tear,tear,first_gen_imitation,1,1,1085.99258028,1
LSN111,2016_Nov_22_1450,,LL-Jerry,4,80,42,fshfshfsh,water,water,first_gen_imitation,1,1,531.92920913,1
LSN111,2016_Nov_22_1450,,LL-Jerry,4,81,38,scheeept,tear,tear,first_gen_imitation,1,1,991.446578642,1
LSN111,2016_Nov_22_1450,,LL-Jerry,4,82,34,zoop,glass,zipper,first_gen_imitation,0,0,496.865047142,1
LSN111,2016_Nov_22_1450,,LL-Jerry,4,83,34,scheeept,glass,tear,first_gen_imitation,0,0,532.392058056,1
LSN111,2016_Nov_22_1450,,LL-Jerry,4,84,42,zoop,water,zipper,first_gen_imitation,0,0,442.338187015,1
LSN111,2016_Nov_22_1450,,LL-Jerry,4,85,46,zoop,zipper,zipper,first_gen_imitation,1,1,911.828573095,1
LSN111,2016_Nov_22_1450,,LL-Jerry,4,86,46,scheeept,zipper,tear,first_gen_imitation,0,0,520.325018559,1
LSN111,2016_Nov_22_1450,,LL-Jerry,4,87,42,zoop,water,zipper,first_gen_imitation,0,0,578.775851056,1
LSN111,2016_Nov_22_1450,,LL-Jerry,4,88,46,zoop,zipper,zipper,first_gen_imitation,1,1,1345.57780903,1
LSN111,2016_Nov_22_1450,,LL-Jerry,4,89,42,fshfshfsh,water,water,first_gen_imitation,1,1,554.008315783,1
LSN111,2016_Nov_22_1450,,LL-Jerry,4,90,34,fshfshfsh,glass,water,first_gen_imitation,0,0,677.331609186,1
LSN111,2016_Nov_22_1450,,LL-Jerry,4,91,34,dirrng,glass,glass,first_gen_imitation,1,1,800.985874375,1
LSN111,2016_Nov_22_1450,,LL-Jerry,4,92,38,dirrng,tear,glass,first_gen_imitation,0,0,588.06771785,1
LSN111,2016_Nov_22_1450,,LL-Jerry,4,93,34,zoop,glass,zipper,first_gen_imitation,0,0,603.18648722,1
LSN111,2016_Nov_22_1450,,LL-Jerry,4,94,46,zoop,zipper,zipper,first_gen_imitation,1,1,1017.85425073,1
LSN111,2016_Nov_22_1450,,LL-Jerry,4,95,46,zoop,zipper,zipper,first_gen_imitation,1,1,603.176564444,1
LSN111,2016_Nov_22_1450,,LL-Jerry,4,96,42,zoop,water,zipper,first_gen_imitation,0,0,666.643833509,1
LSN114,2016_Nov_22_1525,,LL-Kramer,1,1,41,feeshefee,tear,tear,first_gen_imitation,1,0,1430.24589028,0
LSN114,2016_Nov_22_1525,,LL-Kramer,1,2,49,zerp,zipper,zipper,first_gen_imitation,1,1,73.7833529711,1
LSN114,2016_Nov_22_1525,,LL-Kramer,1,3,43,glonglon,water,water,first_gen_imitation,1,1,861.110506579,1
LSN114,2016_Nov_22_1525,,LL-Kramer,1,4,36,boonk,glass,glass,first_gen_imitation,1,0,587.169030681,0
LSN114,2016_Nov_22_1525,,LL-Kramer,1,5,41,feeshefee,tear,tear,first_gen_imitation,1,1,42.6425025798,1
LSN114,2016_Nov_22_1525,,LL-Kramer,1,6,43,glonglon,water,water,first_gen_imitation,1,1,711.364654824,1
LSN114,2016_Nov_22_1525,,LL-Kramer,1,7,41,boonk,tear,glass,first_gen_imitation,0,1,796.914691105,0
LSN114,2016_Nov_22_1525,,LL-Kramer,1,8,36,boonk,glass,glass,first_gen_imitation,1,0,1155.95168015,0
LSN114,2016_Nov_22_1525,,LL-Kramer,1,9,43,boonk,water,glass,first_gen_imitation,0,1,570.737414062,0
LSN114,2016_Nov_22_1525,,LL-Kramer,1,10,49,zerp,zipper,zipper,first_gen_imitation,1,1,1059.12053166,1
LSN114,2016_Nov_22_1525,,LL-Kramer,1,11,49,feeshefee,zipper,tear,first_gen_imitation,0,0,883.197403513,1
LSN114,2016_Nov_22_1525,,LL-Kramer,1,12,43,glonglon,water,water,first_gen_imitation,1,1,1164.1753302,1
LSN114,2016_Nov_22_1525,,LL-Kramer,1,13,41,zerp,tear,zipper,first_gen_imitation,0,0,1306.25800183,1
LSN114,2016_Nov_22_1525,,LL-Kramer,1,14,43,boonk,water,glass,first_gen_imitation,0,1,1081.34826645,0
LSN114,2016_Nov_22_1525,,LL-Kramer,1,15,36,boonk,glass,glass,first_gen_imitation,1,0,1021.67398622,0
LSN114,2016_Nov_22_1525,,LL-Kramer,1,16,36,zerp,glass,zipper,first_gen_imitation,0,0,1066.47738907,1
LSN114,2016_Nov_22_1525,,LL-Kramer,1,17,41,glonglon,tear,water,first_gen_imitation,0,1,1710.43928619,0
LSN114,2016_Nov_22_1525,,LL-Kramer,1,18,49,zerp,zipper,zipper,first_gen_imitation,1,1,497.428108938,1
LSN114,2016_Nov_22_1525,,LL-Kramer,1,19,36,boonk,glass,glass,first_gen_imitation,1,1,1195.17886406,1
LSN114,2016_Nov_22_1525,,LL-Kramer,1,20,41,glonglon,tear,water,first_gen_imitation,0,1,773.140300065,0
LSN114,2016_Nov_22_1525,,LL-Kramer,1,21,49,zerp,zipper,zipper,first_gen_imitation,1,1,493.263789453,1
LSN114,2016_Nov_22_1525,,LL-Kramer,1,22,43,glonglon,water,water,first_gen_imitation,1,1,1208.12442387,1
LSN114,2016_Nov_22_1525,,LL-Kramer,1,23,36,feeshefee,glass,tear,first_gen_imitation,0,1,837.005467154,0
LSN114,2016_Nov_22_1525,,LL-Kramer,1,24,49,glonglon,zipper,water,first_gen_imitation,0,0,2510.13104292,1
LSN114,2016_Nov_22_1525,,LL-Kramer,2,25,40,feeshefee,tear,tear,first_gen_imitation,1,1,856.9273022,1
LSN114,2016_Nov_22_1525,,LL-Kramer,2,26,47,zerp,zipper,zipper,first_gen_imitation,1,0,825.911605265,0
LSN114,2016_Nov_22_1525,,LL-Kramer,2,27,34,boonk,glass,glass,first_gen_imitation,1,0,1671.24411045,0
LSN114,2016_Nov_22_1525,,LL-Kramer,2,28,44,glonglon,water,water,first_gen_imitation,1,1,500.322646461,1
LSN114,2016_Nov_22_1525,,LL-Kramer,2,29,40,feeshefee,tear,tear,first_gen_imitation,1,1,875.781009905,1
LSN114,2016_Nov_22_1525,,LL-Kramer,2,30,34,boonk,glass,glass,first_gen_imitation,1,1,463.535158429,1
LSN114,2016_Nov_22_1525,,LL-Kramer,2,31,40,feeshefee,tear,tear,first_gen_imitation,1,1,632.450962905,1
LSN114,2016_Nov_22_1525,,LL-Kramer,2,32,47,feeshefee,zipper,tear,first_gen_imitation,0,0,866.567973513,1
LSN114,2016_Nov_22_1525,,LL-Kramer,2,33,44,glonglon,water,water,first_gen_imitation,1,1,415.244417731,1
LSN114,2016_Nov_22_1525,,LL-Kramer,2,34,44,zerp,water,zipper,first_gen_imitation,0,0,475.194932427,1
LSN114,2016_Nov_22_1525,,LL-Kramer,2,35,47,zerp,zipper,zipper,first_gen_imitation,1,1,405.69241019,1
LSN114,2016_Nov_22_1525,,LL-Kramer,2,36,34,glonglon,glass,water,first_gen_imitation,0,0,895.254084375,1
LSN114,2016_Nov_22_1525,,LL-Kramer,2,37,44,boonk,water,glass,first_gen_imitation,0,0,933.109059464,1
LSN114,2016_Nov_22_1525,,LL-Kramer,2,38,40,zerp,tear,zipper,first_gen_imitation,0,0,1923.00170287,1
LSN114,2016_Nov_22_1525,,LL-Kramer,2,39,44,zerp,water,zipper,first_gen_imitation,0,0,536.344809458,1
LSN114,2016_Nov_22_1525,,LL-Kramer,2,40,40,feeshefee,tear,tear,first_gen_imitation,1,1,811.93152722,1
LSN114,2016_Nov_22_1525,,LL-Kramer,2,41,47,zerp,zipper,zipper,first_gen_imitation,1,1,387.484315783,1
LSN114,2016_Nov_22_1525,,LL-Kramer,2,42,34,feeshefee,glass,tear,first_gen_imitation,0,0,1079.28851247,1
LSN114,2016_Nov_22_1525,,LL-Kramer,2,43,34,glonglon,glass,water,first_gen_imitation,0,0,793.891477864,1
